save_bit,fc_state,time,accX,accY,accZ,gyroX,gyroY,gyroZ,magX,magY,magZ,imut,pres,temp
1,3,0.0,0.44502632181277185,0.04785229266803998,10.044196231021592,-0.18310826276035708,-0.06103608758678569,-0.06103608758678569,0,0,0,0,97234.046875,34.994789123535156,
1,3,0.001,0.42110017547875184,-0.11963073167009997,9.857572289616236,-0.8545052262149997,-0.06103608758678569,-0.18310826276035708,0,0,0,0,97235.3515625,34.990142822265625,
1,3,0.002,0.3971740291447319,-0.08613412680247197,10.058551918822005,-0.8545052262149997,0.48828870069428554,0.0,0,0,0,0,97235.3515625,34.990142822265625,
1,3,0.004,0.4402410925459678,-0.04785229266803998,9.838431372549021,-0.8545052262149997,-0.12207217517357138,-0.06103608758678569,0,0,0,0,97235.3515625,34.990142822265625,
1,3,0.005,0.41631494621194787,-0.04785229266803998,10.082478065156025,-0.7324330510414283,0.06103608758678569,0.18310826276035708,0,0,0,0,97235.3515625,34.990142822265625,
1,3,0.007,0.48809338521400786,-0.06220798046845198,9.953276874952317,-0.9765774013885711,0.42725261310749985,0.06103608758678569,0,0,0,0,97235.3515625,34.990142822265625,
1,3,0.008,0.42110017547875184,-0.028711375600823992,10.039411001754788,-1.2207217517357138,0.12207217517357138,-0.12207217517357138,0,0,0,0,97236.375,34.994789123535156,
1,3,0.01,0.43545586327916386,-0.09091935606927597,10.058551918822005,-1.5259021896696423,0.42725261310749985,-0.12207217517357138,0,0,0,0,97236.375,34.994789123535156,
1,3,0.011,0.43067063401235983,-0.11963073167009997,10.034625772487985,-1.2207217517357138,-0.12207217517357138,-0.36621652552071415,0,0,0,0,97236.375,34.994789123535156,
1,3,0.012,0.39238879987792785,-0.07656366826886397,10.034625772487985,-1.0986495765621425,0.30518043793392846,0.36621652552071415,0,0,0,0,97236.375,34.994789123535156,
1,3,0.014,0.3971740291447319,-0.15791256580453195,10.0537666895552,-1.0376134889753568,0.24414435034714277,0.42725261310749985,0,0,0,0,97235.3515625,34.990142822265625,
1,3,0.015,0.39238879987792785,-0.04785229266803998,10.259531548027773,-0.793469138628214,0.24414435034714277,0.06103608758678569,0,0,0,0,97235.3515625,34.990142822265625,
1,3,0.017,0.4928786144808118,-0.02392614633401999,10.025055313954377,-0.9155413138017854,0.24414435034714277,0.24414435034714277,0,0,0,0,97235.3515625,34.990142822265625,
1,3,0.018,0.38281834134431986,-0.004785229266803998,10.326524757763028,-0.8545052262149997,0.12207217517357138,0.18310826276035708,0,0,0,0,97241.046875,34.994789123535156,
1,3,0.02,0.3493217364766919,-0.07177843900205998,10.130330357824064,-0.6713969634546426,-0.18310826276035708,-0.18310826276035708,0,0,0,0,97241.046875,34.994789123535156,
1,3,0.021,0.4402410925459678,-0.07656366826886397,10.2930281528954,-0.24414435034714277,0.30518043793392846,0.06103608758678569,0,0,0,0,97241.046875,34.994789123535156,
1,3,0.023,0.4402410925459678,-0.03828183413443199,10.07769283588922,-0.42725261310749985,0.06103608758678569,-0.06103608758678569,0,0,0,0,97241.046875,34.994789123535156,
1,3,0.024,0.46416723887998784,-0.07177843900205998,10.249961089494164,-0.42725261310749985,-0.42725261310749985,0.42725261310749985,0,0,0,0,97236.375,34.994789123535156,
1,3,0.025,0.4498115510795758,0.019140917067215994,10.192538338292517,-0.24414435034714277,-0.48828870069428554,0.24414435034714277,0,0,0,0,97236.375,34.994789123535156,
1,3,0.027,0.47852292668039986,-0.02392614633401999,10.12554512855726,-0.6103608758678569,0.18310826276035708,-0.12207217517357138,0,0,0,0,97236.375,34.994789123535156,
1,3,0.028,0.47373769741359584,-0.004785229266803998,10.163826962691692,-0.12207217517357138,0.12207217517357138,0.24414435034714277,0,0,0,0,97234.3125,34.98550033569336,
1,3,0.03,0.5359456778820478,0.004785229266803998,10.202108796826124,-0.48828870069428554,-0.42725261310749985,0.5493247882810712,0,0,0,0,97234.3125,34.98550033569336,
1,3,0.031,0.4928786144808118,0.04785229266803998,10.230820172426949,-0.36621652552071415,0.12207217517357138,0.06103608758678569,0,0,0,0,97234.3125,34.98550033569336,
1,3,0.033,0.44502632181277185,0.09091935606927597,10.216464484626536,-0.36621652552071415,-0.18310826276035708,0.5493247882810712,0,0,0,0,97234.3125,34.98550033569336,
1,3,0.034,0.5503013656824598,-0.04785229266803998,10.321739528496224,-0.36621652552071415,-0.42725261310749985,0.6103608758678569,0,0,0,0,97242.0703125,34.99943542480469,
1,3,0.036,0.4593820096131839,-0.028711375600823992,10.154256504158084,-0.18310826276035708,-0.30518043793392846,-0.06103608758678569,0,0,0,0,97242.0703125,34.99943542480469,
1,3,0.037,0.5263752193484398,0.019140917067215994,10.221249713893341,0.06103608758678569,-0.06103608758678569,0.24414435034714277,0,0,0,0,97242.0703125,34.99943542480469,
1,3,0.038,0.48809338521400786,0.06699320973525598,10.288242923628596,0.24414435034714277,-0.793469138628214,0.24414435034714277,0,0,0,0,97237.6796875,34.990142822265625,
1,3,0.04,0.5407309071488519,-0.014355687800411996,10.197323567559321,0.0,-0.42725261310749985,0.18310826276035708,0,0,0,0,97237.6796875,34.990142822265625,
1,3,0.041,0.48809338521400786,-0.028711375600823992,10.249961089494164,-0.30518043793392846,-0.36621652552071415,0.24414435034714277,0,0,0,0,97237.6796875,34.990142822265625,
1,3,0.043,0.5790127412832838,-0.043067063401235985,10.187753109025712,-0.06103608758678569,-0.24414435034714277,0.24414435034714277,0,0,0,0,97237.6796875,34.990142822265625,
1,3,0.044,0.5168047608148318,0.057422751201647984,10.06333714808881,0.0,-0.48828870069428554,0.36621652552071415,0,0,0,0,97239.7421875,34.99943542480469,
1,3,0.046,0.5550865949492638,0.06699320973525598,10.254746318760969,0.18310826276035708,-0.48828870069428554,0.06103608758678569,0,0,0,0,97239.7421875,34.99943542480469,
1,3,0.047,0.5742275120164798,0.09570458533607996,10.092048523689632,0.36621652552071415,0.06103608758678569,0.30518043793392846,0,0,0,0,97239.7421875,34.99943542480469,
1,3,0.049,0.5455161364156558,0.028711375600823992,10.058551918822005,0.24414435034714277,-0.793469138628214,-0.12207217517357138,0,0,0,0,97235.3515625,34.990142822265625,
1,3,0.05,0.5742275120164798,0.0,10.106404211490045,0.18310826276035708,-0.42725261310749985,-0.24414435034714277,0,0,0,0,97235.3515625,34.990142822265625,
1,3,0.052,0.49766384374761585,0.04785229266803998,10.015484855420768,0.30518043793392846,-0.30518043793392846,0.36621652552071415,0,0,0,0,97235.3515625,34.990142822265625,
1,3,0.053,0.5694422827496758,0.03828183413443199,10.015484855420768,0.42725261310749985,-0.6103608758678569,0.30518043793392846,0,0,0,0,97235.3515625,34.990142822265625,
1,3,0.054,0.5981536583504998,-0.028711375600823992,10.092048523689632,0.48828870069428554,-0.24414435034714277,0.48828870069428554,0,0,0,0,97235.078125,34.99943542480469,
1,3,0.056,0.5503013656824598,-0.014355687800411996,10.015484855420768,0.06103608758678569,-0.30518043793392846,0.12207217517357138,0,0,0,0,97235.078125,34.99943542480469,
1,3,0.057,0.6029388876173037,0.03828183413443199,10.00591439688716,0.7324330510414283,-0.6103608758678569,0.18310826276035708,0,0,0,0,97235.078125,34.99943542480469,
1,3,0.059,0.6077241168841078,0.004785229266803998,9.938921187151905,0.12207217517357138,0.06103608758678569,0.36621652552071415,0,0,0,0,97234.046875,34.994789123535156,
1,3,0.06,0.5168047608148318,-0.014355687800411996,9.948491645685513,0.12207217517357138,-0.24414435034714277,0.24414435034714277,0,0,0,0,97234.046875,34.994789123535156,
1,3,0.062,0.5885831998168918,0.009570458533607997,9.819290455481804,-0.36621652552071415,-0.18310826276035708,0.36621652552071415,0,0,0,0,97234.046875,34.994789123535156,
1,3,0.063,0.5024490730144199,-0.03349660486762799,9.972417792019533,-0.36621652552071415,-0.48828870069428554,-0.06103608758678569,0,0,0,0,97234.046875,34.994789123535156,
1,3,0.065,0.5407309071488519,-0.03828183413443199,9.938921187151905,0.42725261310749985,0.06103608758678569,0.24414435034714277,0,0,0,0,97237.6796875,34.990142822265625,
1,3,0.066,0.6029388876173037,-0.11006027313649196,9.843216601815824,0.0,-0.12207217517357138,0.12207217517357138,0,0,0,0,97237.6796875,34.990142822265625,
1,3,0.067,0.5742275120164798,0.028711375600823992,10.092048523689632,-0.12207217517357138,-0.18310826276035708,0.18310826276035708,0,0,0,0,97237.6796875,34.990142822265625,
1,3,0.069,0.5933684290836958,-0.10048981460288396,10.010699626153965,-0.48828870069428554,-0.12207217517357138,-0.24414435034714277,0,0,0,0,97234.046875,34.994789123535156,
1,3,0.07,0.5311604486152438,0.004785229266803998,9.943706416418708,-0.42725261310749985,-0.5493247882810712,0.24414435034714277,0,0,0,0,97234.046875,34.994789123535156,
1,3,0.072,0.5072343022812238,-0.06220798046845198,9.919780270084688,-0.36621652552071415,-0.18310826276035708,0.0,0,0,0,0,97234.046875,34.994789123535156,
1,3,0.073,0.47373769741359584,-0.043067063401235985,9.967632562752728,-0.12207217517357138,-0.18310826276035708,0.0,0,0,0,0,97234.046875,34.994789123535156,
1,3,0.075,0.5837979705500878,-0.057422751201647984,10.058551918822005,0.0,-0.30518043793392846,-0.12207217517357138,0,0,0,0,97234.046875,34.994789123535156,
1,3,0.076,0.5503013656824598,-0.014355687800411996,9.91020981155108,-0.793469138628214,0.12207217517357138,-0.12207217517357138,0,0,0,0,97234.046875,34.994789123535156,
1,3,0.078,0.46895246814679187,-0.13398641947051196,9.972417792019533,-0.24414435034714277,-0.18310826276035708,0.24414435034714277,0,0,0,0,97234.046875,34.994789123535156,
1,3,0.079,0.46416723887998784,-0.014355687800411996,10.044196231021592,0.06103608758678569,0.12207217517357138,0.24414435034714277,0,0,0,0,97230.9609375,34.98085403442383,
1,3,0.081,0.5359456778820478,-0.009570458533607997,9.996343938353553,-0.36621652552071415,-0.18310826276035708,0.18310826276035708,0,0,0,0,97230.9609375,34.98085403442383,
1,3,0.082,0.5311604486152438,0.0,10.07769283588922,-0.18310826276035708,-0.18310826276035708,-0.06103608758678569,0,0,0,0,97230.9609375,34.98085403442383,
1,3,0.083,0.5311604486152438,-0.13398641947051196,10.072907606622417,-0.36621652552071415,-0.06103608758678569,0.12207217517357138,0,0,0,0,97230.9609375,34.98085403442383,
1,3,0.085,0.48809338521400786,-0.06699320973525598,10.08726329442283,-0.30518043793392846,-0.36621652552071415,-0.06103608758678569,0,0,0,0,97238.421875,35.00408172607422,
1,3,0.086,0.5646570534828718,-0.02392614633401999,10.048981460288397,0.06103608758678569,-0.42725261310749985,0.30518043793392846,0,0,0,0,97238.421875,35.00408172607422,
1,3,0.088,0.47373769741359584,0.0,10.149471274891281,-0.24414435034714277,-0.48828870069428554,0.06103608758678569,0,0,0,0,97238.421875,35.00408172607422,
1,3,0.089,0.46895246814679187,-0.11006027313649196,10.10161898222324,0.0,-0.30518043793392846,0.06103608758678569,0,0,0,0,97227.046875,34.994789123535156,
1,3,0.091,0.5694422827496758,0.004785229266803998,10.192538338292517,-0.12207217517357138,-0.30518043793392846,0.24414435034714277,0,0,0,0,97227.046875,34.994789123535156,
1,3,0.092,0.5168047608148318,0.0,10.130330357824064,0.0,0.0,0.18310826276035708,0,0,0,0,97227.046875,34.994789123535156,
1,3,0.094,0.4498115510795758,0.03349660486762799,10.192538338292517,0.06103608758678569,0.06103608758678569,0.12207217517357138,0,0,0,0,97227.046875,34.994789123535156,
1,3,0.095,0.3780331120775159,0.019140917067215994,10.130330357824064,0.18310826276035708,-0.48828870069428554,0.0,0,0,0,0,97242.3515625,34.990142822265625,
1,3,0.096,0.45459678034637985,-0.004785229266803998,10.192538338292517,0.0,-0.24414435034714277,-0.36621652552071415,0,0,0,0,97242.3515625,34.990142822265625,
1,3,0.098,0.48330815594720383,-0.019140917067215994,10.168612191958497,0.06103608758678569,-0.06103608758678569,0.0,0,0,0,0,97242.3515625,34.990142822265625,
1,3,0.099,0.41152971694514384,-0.05263752193484398,10.202108796826124,0.30518043793392846,-0.18310826276035708,-0.06103608758678569,0,0,0,0,97235.3515625,34.990142822265625,
1,3,0.101,0.42110017547875184,-0.07177843900205998,10.226034943160144,0.793469138628214,0.12207217517357138,0.6103608758678569,0,0,0,0,97235.3515625,34.990142822265625,
1,3,0.102,0.3876035706111239,-0.03349660486762799,10.221249713893341,0.42725261310749985,-0.30518043793392846,0.18310826276035708,0,0,0,0,97235.3515625,34.990142822265625,
1,3,0.104,0.41152971694514384,-0.004785229266803998,10.249961089494164,0.06103608758678569,-0.30518043793392846,0.06103608758678569,0,0,0,0,97235.3515625,34.990142822265625,
1,3,0.105,0.42588540474555586,0.03349660486762799,10.182967879758909,0.18310826276035708,-0.8545052262149997,0.24414435034714277,0,0,0,0,97238.7109375,34.994789123535156,
1,3,0.107,0.35410696574349587,-0.043067063401235985,10.159041733424889,0.36621652552071415,-0.36621652552071415,0.18310826276035708,0,0,0,0,97238.7109375,34.994789123535156,
1,3,0.108,0.3876035706111239,0.057422751201647984,10.159041733424889,0.42725261310749985,-0.6103608758678569,-0.30518043793392846,0,0,0,0,97238.7109375,34.994789123535156,
1,3,0.11,0.4402410925459678,0.057422751201647984,10.12554512855726,0.7324330510414283,0.06103608758678569,0.36621652552071415,0,0,0,0,97233.015625,34.990142822265625,
1,3,0.111,0.42110017547875184,-0.03349660486762799,10.096833752956437,0.6103608758678569,-0.8545052262149997,-0.12207217517357138,0,0,0,0,97233.015625,34.990142822265625,
1,3,0.112,0.4498115510795758,-0.019140917067215994,10.216464484626536,0.36621652552071415,-0.36621652552071415,-0.12207217517357138,0,0,0,0,97233.015625,34.990142822265625,
1,3,0.114,0.3876035706111239,0.004785229266803998,10.120759899290457,0.6103608758678569,-0.12207217517357138,0.18310826276035708,0,0,0,0,97238.7109375,34.994789123535156,
1,3,0.115,0.43545586327916386,-0.03349660486762799,10.130330357824064,0.30518043793392846,-0.793469138628214,-0.12207217517357138,0,0,0,0,97238.7109375,34.994789123535156,
1,3,0.117,0.38281834134431986,0.11006027313649196,10.106404211490045,0.30518043793392846,-0.48828870069428554,0.18310826276035708,0,0,0,0,97238.7109375,34.994789123535156,
1,3,0.118,0.43545586327916386,0.043067063401235985,10.082478065156025,0.18310826276035708,-0.18310826276035708,0.06103608758678569,0,0,0,0,97238.7109375,34.994789123535156,
1,3,0.12,0.45459678034637985,-0.03828183413443199,10.092048523689632,0.24414435034714277,-0.24414435034714277,0.5493247882810712,0,0,0,0,97231.984375,34.98550033569336,
1,3,0.121,0.44502632181277185,-0.06699320973525598,10.058551918822005,0.30518043793392846,-0.8545052262149997,0.06103608758678569,0,0,0,0,97231.984375,34.98550033569336,
1,3,0.123,0.4402410925459678,-0.11006027313649196,10.096833752956437,-0.06103608758678569,-0.5493247882810712,0.18310826276035708,0,0,0,0,97231.984375,34.98550033569336,
1,3,0.124,0.48330815594720383,-0.10048981460288396,10.082478065156025,0.0,-0.24414435034714277,0.18310826276035708,0,0,0,0,97238.7109375,34.994789123535156,
1,3,0.125,0.40195925841153585,-0.03349660486762799,9.962847333485925,0.0,-0.42725261310749985,0.12207217517357138,0,0,0,0,97238.7109375,34.994789123535156,
1,3,0.127,0.4593820096131839,-0.004785229266803998,9.905424582284276,0.12207217517357138,-0.18310826276035708,0.12207217517357138,0,0,0,0,97238.7109375,34.994789123535156,
1,3,0.128,0.44502632181277185,-0.08134889753566797,9.962847333485925,-0.42725261310749985,-0.06103608758678569,0.0,0,0,0,0,97238.7109375,34.994789123535156,
1,3,0.13,0.46895246814679187,-0.03828183413443199,9.996343938353553,-0.12207217517357138,-0.5493247882810712,0.0,0,0,0,0,97233.75,35.00408172607422,
1,3,0.131,0.45459678034637985,-0.09570458533607996,9.977203021286337,-0.06103608758678569,-0.48828870069428554,0.0,0,0,0,0,97233.75,35.00408172607422,
1,3,0.133,0.42110017547875184,-0.08613412680247197,9.962847333485925,0.30518043793392846,-0.6103608758678569,0.12207217517357138,0,0,0,0,97233.75,35.00408172607422,
1,3,0.134,0.5215899900816359,-0.08613412680247197,10.020270084687573,0.24414435034714277,-0.48828870069428554,0.30518043793392846,0,0,0,0,97234.3125,34.98550033569336,
1,3,0.136,0.6077241168841078,-0.07656366826886397,9.953276874952317,-0.36621652552071415,-0.24414435034714277,-0.12207217517357138,0,0,0,0,97234.3125,34.98550033569336,
1,3,0.137,0.5072343022812238,0.07656366826886397,10.08726329442283,-0.48828870069428554,-0.48828870069428554,0.06103608758678569,0,0,0,0,97234.3125,34.98550033569336,
1,3,0.139,0.5359456778820478,-0.08613412680247197,9.929350728618296,-0.9155413138017854,-0.36621652552071415,0.12207217517357138,0,0,0,0,97234.3125,34.98550033569336,
1,3,0.14,0.48330815594720383,-0.07656366826886397,9.953276874952317,-0.48828870069428554,0.06103608758678569,0.12207217517357138,0,0,0,0,97230.6796875,34.990142822265625,
1,3,0.141,0.48809338521400786,-0.11006027313649196,9.843216601815824,-0.24414435034714277,0.12207217517357138,-0.06103608758678569,0,0,0,0,97230.6796875,34.990142822265625,
1,3,0.143,0.5933684290836958,-0.08613412680247197,10.015484855420768,0.06103608758678569,-0.42725261310749985,0.42725261310749985,0,0,0,0,97230.6796875,34.990142822265625,
1,3,0.144,0.5790127412832838,-0.057422751201647984,10.044196231021592,-0.6103608758678569,0.06103608758678569,0.36621652552071415,0,0,0,0,97235.3515625,34.990142822265625,
1,3,0.146,0.47852292668039986,-0.08134889753566797,10.068122377355612,-0.6713969634546426,-0.06103608758678569,0.30518043793392846,0,0,0,0,97235.3515625,34.990142822265625,
1,3,0.147,0.5263752193484398,0.03349660486762799,10.273887235828184,-0.06103608758678569,0.06103608758678569,0.48828870069428554,0,0,0,0,97235.3515625,34.990142822265625,
1,3,0.149,0.49766384374761585,-0.04785229266803998,10.048981460288397,-0.6103608758678569,0.24414435034714277,0.24414435034714277,0,0,0,0,97235.3515625,34.990142822265625,
1,3,0.15,0.5168047608148318,-0.043067063401235985,10.10161898222324,-0.18310826276035708,-0.12207217517357138,-0.06103608758678569,0,0,0,0,97234.046875,34.994789123535156,
1,3,0.152,0.47852292668039986,-0.009570458533607997,10.092048523689632,0.18310826276035708,-0.24414435034714277,-0.06103608758678569,0,0,0,0,97234.046875,34.994789123535156,
1,3,0.153,0.47373769741359584,0.02392614633401999,10.259531548027773,-0.30518043793392846,-0.36621652552071415,0.06103608758678569,0,0,0,0,97234.046875,34.994789123535156,
1,3,0.154,0.5120195315480278,0.06220798046845198,10.048981460288397,-0.8545052262149997,-0.24414435034714277,0.18310826276035708,0,0,0,0,97235.3515625,34.990142822265625,
1,3,0.156,0.5981536583504998,-0.019140917067215994,10.06333714808881,-0.36621652552071415,-0.36621652552071415,0.18310826276035708,0,0,0,0,97235.3515625,34.990142822265625,
1,3,0.157,0.5694422827496758,0.043067063401235985,10.283457694361793,0.30518043793392846,0.06103608758678569,0.06103608758678569,0,0,0,0,97235.3515625,34.990142822265625,
1,3,0.159,0.6555764095521478,0.10048981460288396,10.211679255359732,0.0,0.30518043793392846,0.30518043793392846,0,0,0,0,97235.3515625,34.990142822265625,
1,3,0.16,0.6699320973525598,0.07177843900205998,10.230820172426949,-0.30518043793392846,-0.12207217517357138,0.24414435034714277,0,0,0,0,97234.046875,34.994789123535156,
1,3,0.162,0.5885831998168918,0.09091935606927597,10.211679255359732,-0.12207217517357138,-0.24414435034714277,-0.36621652552071415,0,0,0,0,97234.046875,34.994789123535156,
1,3,0.163,0.6460059510185397,0.02392614633401999,10.249961089494164,-0.36621652552071415,-0.12207217517357138,0.5493247882810712,0,0,0,0,97234.046875,34.994789123535156,
1,3,0.165,0.6364354924849318,-0.028711375600823992,10.178182650492104,-0.8545052262149997,-0.24414435034714277,0.42725261310749985,0,0,0,0,97236.375,34.994789123535156,
1,3,0.166,0.6412207217517358,-0.009570458533607997,10.374377050431068,-0.6713969634546426,0.0,0.18310826276035708,0,0,0,0,97236.375,34.994789123535156,
1,3,0.167,0.6220798046845198,0.04785229266803998,10.278672465094989,-0.36621652552071415,-0.36621652552071415,0.18310826276035708,0,0,0,0,97236.375,34.994789123535156,
1,3,0.169,0.6651468680857557,0.12920119020370796,10.173397421225301,0.12207217517357138,-0.30518043793392846,0.42725261310749985,0,0,0,0,97236.375,34.994789123535156,
1,3,0.17,0.6555764095521478,0.11963073167009997,10.245175860227361,0.6103608758678569,-0.24414435034714277,0.30518043793392846,0,0,0,0,97227.046875,34.994789123535156,
1,3,0.172,0.5885831998168918,0.06699320973525598,10.192538338292517,0.06103608758678569,-0.5493247882810712,-0.18310826276035708,0,0,0,0,97227.046875,34.994789123535156,
1,3,0.173,0.6460059510185397,0.07177843900205998,10.178182650492104,-0.06103608758678569,-0.793469138628214,0.24414435034714277,0,0,0,0,97227.046875,34.994789123535156,
1,3,0.175,0.6172945754177158,0.014355687800411996,10.159041733424889,0.5493247882810712,-0.8545052262149997,-0.06103608758678569,0,0,0,0,97238.7109375,34.994789123535156,
1,3,0.176,0.6316502632181278,0.03349660486762799,10.13511558709087,-0.06103608758678569,-0.48828870069428554,-0.06103608758678569,0,0,0,0,97238.7109375,34.994789123535156,
1,3,0.178,0.7464957656214237,0.09091935606927597,10.178182650492104,0.18310826276035708,-0.48828870069428554,0.12207217517357138,0,0,0,0,97238.7109375,34.994789123535156,
1,3,0.179,0.6842877851529717,0.05263752193484398,10.230820172426949,0.0,-0.24414435034714277,0.24414435034714277,0,0,0,0,97238.7109375,34.994789123535156,
1,3,0.181,0.7704219119554437,0.043067063401235985,10.044196231021592,0.12207217517357138,-0.48828870069428554,0.12207217517357138,0,0,0,0,97233.015625,34.990142822265625,
1,3,0.182,0.6507911802853438,-0.02392614633401999,9.914995040817885,0.12207217517357138,-0.36621652552071415,0.18310826276035708,0,0,0,0,97233.015625,34.990142822265625,
1,3,0.183,0.6938582436865798,-0.009570458533607997,9.938921187151905,0.6103608758678569,-0.6713969634546426,0.06103608758678569,0,0,0,0,97233.015625,34.990142822265625,
1,3,0.185,0.6795025558861678,-0.019140917067215994,9.790579079880981,0.5493247882810712,-1.0986495765621425,-0.06103608758678569,0,0,0,0,97226.296875,34.98085403442383,
1,3,0.186,0.7273548485542077,-0.009570458533607997,9.752297245746549,0.8545052262149997,-0.9765774013885711,-0.42725261310749985,0,0,0,0,97226.296875,34.98085403442383,
1,3,0.188,0.6747173266193638,0.0,9.781008621347373,0.7324330510414283,-0.6713969634546426,0.12207217517357138,0,0,0,0,97226.296875,34.98085403442383,
1,3,0.189,0.7752071412222478,-0.028711375600823992,9.757082475013354,0.7324330510414283,-0.793469138628214,0.30518043793392846,0,0,0,0,97226.296875,34.98085403442383,
1,3,0.191,0.7177843900205998,0.07656366826886397,9.814505226215001,0.42725261310749985,-0.30518043793392846,-0.12207217517357138,0,0,0,0,97238.7109375,34.994789123535156,
1,3,0.192,0.7799923704890518,-0.009570458533607997,9.857572289616236,-0.06103608758678569,-0.5493247882810712,0.18310826276035708,0,0,0,0,97238.7109375,34.994789123535156,
1,3,0.194,0.7560662241550318,-0.06699320973525598,9.757082475013354,-0.48828870069428554,-0.18310826276035708,0.24414435034714277,0,0,0,0,97238.7109375,34.994789123535156,
1,3,0.195,0.7273548485542077,-0.07177843900205998,9.757082475013354,-1.0986495765621425,-0.06103608758678569,-0.06103608758678569,0,0,0,0,97236.375,34.994789123535156,
1,3,0.196,0.7034287022201877,-0.06220798046845198,9.790579079880981,-1.3427939269092852,-0.24414435034714277,0.24414435034714277,0,0,0,0,97236.375,34.994789123535156,
1,3,0.198,0.6747173266193638,-0.08613412680247197,9.785793850614176,-0.8545052262149997,-0.24414435034714277,0.0,0,0,0,0,97236.375,34.994789123535156,
1,3,0.199,0.7082139314869917,-0.06699320973525598,9.819290455481804,0.18310826276035708,0.18310826276035708,-0.18310826276035708,0,0,0,0,97236.375,34.994789123535156,
1,3,0.201,0.6938582436865798,0.0,9.64702220187686,0.48828870069428554,-0.06103608758678569,0.18310826276035708,0,0,0,0,97240.0078125,34.990142822265625,
1,3,0.202,0.6460059510185397,-0.057422751201647984,9.733156328679332,0.6103608758678569,0.0,0.0,0,0,0,0,97240.0078125,34.990142822265625,
1,3,0.204,0.6507911802853438,0.03349660486762799,9.871927977416648,0.5493247882810712,0.0,-0.06103608758678569,0,0,0,0,97240.0078125,34.990142822265625,
1,3,0.205,0.6699320973525598,0.05263752193484398,10.025055313954377,-0.30518043793392846,0.24414435034714277,-0.18310826276035708,0,0,0,0,97232.75,34.99943542480469,
1,3,0.207,0.5646570534828718,0.06699320973525598,10.025055313954377,-1.2207217517357138,0.6103608758678569,-0.18310826276035708,0,0,0,0,97232.75,34.99943542480469,
1,3,0.208,0.5120195315480278,-0.09570458533607996,9.996343938353553,-2.197299153124285,0.9155413138017854,-0.06103608758678569,0,0,0,0,97232.75,34.99943542480469,
1,3,0.21,0.47373769741359584,0.028711375600823992,10.025055313954377,-1.8921187151903565,1.0376134889753568,-0.06103608758678569,0,0,0,0,97232.75,34.99943542480469,
1,3,0.211,0.47373769741359584,0.043067063401235985,9.996343938353553,-1.6479743648432137,0.48828870069428554,0.06103608758678569,0,0,0,0,97231.984375,34.98550033569336,
1,3,0.212,0.5120195315480278,0.10048981460288396,10.187753109025712,-0.6103608758678569,0.48828870069428554,-0.24414435034714277,0,0,0,0,97231.984375,34.98550033569336,
1,3,0.214,0.39238879987792785,0.043067063401235985,9.991558709086748,-0.6103608758678569,0.7324330510414283,-0.06103608758678569,0,0,0,0,97231.984375,34.98550033569336,
1,3,0.215,0.42110017547875184,0.07177843900205998,10.254746318760969,-0.30518043793392846,0.24414435034714277,0.48828870069428554,0,0,0,0,97237.40625,34.99943542480469,
1,3,0.217,0.3780331120775159,0.07656366826886397,10.264316777294576,-0.42725261310749985,0.5493247882810712,0.06103608758678569,0,0,0,0,97237.40625,34.99943542480469,
1,3,0.218,0.42110017547875184,0.014355687800411996,10.34088044556344,-0.7324330510414283,0.24414435034714277,-0.06103608758678569,0,0,0,0,97237.40625,34.99943542480469,
1,3,0.22,0.2584023804074159,0.07177843900205998,10.350450904097048,-0.9155413138017854,0.0,0.06103608758678569,0,0,0,0,97231.7109375,34.994789123535156,
1,3,0.221,0.20576485847257192,0.04785229266803998,10.546645304036012,-0.5493247882810712,0.06103608758678569,-0.24414435034714277,0,0,0,0,97231.7109375,34.994789123535156,
1,3,0.223,0.24883192187380793,0.12920119020370796,10.546645304036012,-0.36621652552071415,0.30518043793392846,-0.06103608758678569,0,0,0,0,97231.7109375,34.994789123535156,
1,3,0.224,0.2966842145418479,0.12920119020370796,10.656705577172504,-0.12207217517357138,-0.36621652552071415,-0.06103608758678569,0,0,0,0,97231.7109375,34.994789123535156,
1,3,0.225,0.2823285267414359,0.10048981460288396,10.513148699168385,0.0,0.48828870069428554,-0.18310826276035708,0,0,0,0,97234.046875,34.994789123535156,
1,3,0.227,0.2775432974746319,-0.057422751201647984,10.56578622110323,0.9155413138017854,-0.06103608758678569,-0.12207217517357138,0,0,0,0,97234.046875,34.994789123535156,
1,3,0.228,0.2584023804074159,0.0,10.570571450370032,1.0376134889753568,-0.42725261310749985,0.18310826276035708,0,0,0,0,97234.046875,34.994789123535156,
1,3,0.23,0.18183871213855193,0.057422751201647984,10.623208972304877,1.1596856641489282,-0.8545052262149997,-0.36621652552071415,0,0,0,0,97236.375,34.994789123535156,
1,3,0.231,0.3301808194094759,0.07177843900205998,10.599282825970857,0.6713969634546426,-0.5493247882810712,0.30518043793392846,0,0,0,0,97236.375,34.994789123535156,
1,3,0.233,0.40195925841153585,0.028711375600823992,10.489222552834365,0.793469138628214,-0.5493247882810712,0.06103608758678569,0,0,0,0,97236.375,34.994789123535156,
1,3,0.234,0.2918989852750439,-0.06220798046845198,10.379162279697873,0.793469138628214,-0.48828870069428554,0.06103608758678569,0,0,0,0,97236.375,34.994789123535156,
1,3,0.236,0.2871137560082399,-0.09570458533607996,10.446155489433128,0.5493247882810712,-0.793469138628214,0.18310826276035708,0,0,0,0,97234.046875,34.994789123535156,
1,3,0.237,0.3110399023422599,-0.10048981460288396,10.455725947966737,1.2817578393224995,-0.8545052262149997,0.06103608758678569,0,0,0,0,97234.046875,34.994789123535156,
1,3,0.239,0.4402410925459678,-0.14355687800411995,10.345665674830245,1.7090104524299994,-0.6103608758678569,0.06103608758678569,0,0,0,0,97234.046875,34.994789123535156,
1,3,0.24,0.35410696574349587,-0.04785229266803998,10.178182650492104,2.0752269779507135,-1.0376134889753568,-0.5493247882810712,0,0,0,0,97234.046875,34.994789123535156,
1,3,0.241,0.2727580682078279,-0.07656366826886397,10.11118944075685,2.136263065537499,-1.0986495765621425,-0.06103608758678569,0,0,0,0,97234.046875,34.994789123535156,
1,3,0.243,0.36367742427710387,-0.13398641947051196,10.0537666895552,1.8310826276035708,-1.4648661020828566,-0.36621652552071415,0,0,0,0,97234.046875,34.994789123535156,
1,3,0.244,0.2918989852750439,-0.10048981460288396,10.168612191958497,1.7090104524299994,-1.586938277256428,-0.24414435034714277,0,0,0,0,97234.046875,34.994789123535156,
1,3,0.246,0.3493217364766919,-0.17226825360494394,10.06333714808881,1.6479743648432137,-1.403830014496071,-0.6713969634546426,0,0,0,0,97235.078125,34.99943542480469,
1,3,0.247,0.46416723887998784,-0.2775432974746319,10.202108796826124,2.197299153124285,-1.0986495765621425,-0.9155413138017854,0,0,0,0,97235.078125,34.99943542480469,
1,3,0.249,0.4498115510795758,-0.23447623407339593,9.967632562752728,2.563515678644999,-0.9765774013885711,-0.5493247882810712,0,0,0,0,97235.078125,34.99943542480469,
1,3,0.25,0.3445365072098879,-0.23926146334019993,9.891068894483865,2.6855878538185705,-0.9765774013885711,-0.42725261310749985,0,0,0,0,97227.046875,34.994789123535156,
1,3,0.252,0.35410696574349587,-0.2201205462729839,9.809719996948196,2.3193713282978563,-1.403830014496071,-0.30518043793392846,0,0,0,0,97227.046875,34.994789123535156,
1,3,0.253,0.42110017547875184,-0.17226825360494394,9.766652933546961,2.136263065537499,-1.6479743648432137,-0.48828870069428554,0,0,0,0,97227.046875,34.994789123535156,
1,3,0.254,0.4402410925459678,-0.23926146334019993,9.867142748149845,2.197299153124285,-1.8310826276035708,-0.8545052262149997,0,0,0,0,97227.046875,34.994789123535156,
1,3,0.256,0.42588540474555586,-0.2871137560082399,9.752297245746549,3.2959487296864274,-1.2817578393224995,-0.36621652552071415,0,0,0,0,97237.6796875,34.990142822265625,
1,3,0.257,0.42110017547875184,-0.24404669260700393,9.781008621347373,2.9297322041657132,-1.2207217517357138,-0.5493247882810712,0,0,0,0,97237.6796875,34.990142822265625,
1,3,0.259,0.43545586327916386,-0.2918989852750439,9.718800640878921,3.4180209048599988,-0.9155413138017854,0.24414435034714277,0,0,0,0,97237.6796875,34.990142822265625,
1,3,0.26,0.49766384374761585,-0.11963073167009997,9.828860914015413,3.4180209048599988,-0.6713969634546426,0.0,0,0,0,0,97237.40625,34.99943542480469,
1,3,0.262,0.47852292668039986,-0.06699320973525598,9.565673304341193,2.3804074158846418,-0.36621652552071415,0.12207217517357138,0,0,0,0,97237.40625,34.99943542480469,
1,3,0.263,0.4498115510795758,-0.15312733653772795,9.63266651407645,1.586938277256428,-0.24414435034714277,0.36621652552071415,0,0,0,0,97237.40625,34.99943542480469,
1,3,0.265,0.47373769741359584,-0.15791256580453195,9.651807431143665,0.6103608758678569,-0.06103608758678569,-0.12207217517357138,0,0,0,0,97237.40625,34.99943542480469,
1,3,0.266,0.45459678034637985,-0.11484550240329597,9.661377889677272,-0.06103608758678569,0.7324330510414283,0.12207217517357138,0,0,0,0,97232.75,34.99943542480469,
1,3,0.268,0.3684626535439079,-0.028711375600823992,9.580028992141605,-0.5493247882810712,0.30518043793392846,0.24414435034714277,0,0,0,0,97232.75,34.99943542480469,
1,3,0.269,0.42110017547875184,-0.11484550240329597,9.666163118944077,-1.3427939269092852,0.6713969634546426,-0.12207217517357138,0,0,0,0,97232.75,34.99943542480469,
1,3,0.27,0.39238879987792785,-0.04785229266803998,9.589599450675212,-1.5259021896696423,0.48828870069428554,0.12207217517357138,0,0,0,0,97237.40625,34.99943542480469,
1,3,0.272,0.3349660486762799,-0.014355687800411996,9.752297245746549,-2.4414435034714277,0.793469138628214,-0.06103608758678569,0,0,0,0,97237.40625,34.99943542480469,
1,3,0.273,0.40195925841153585,-0.019140917067215994,9.800149538414589,-3.356984817273213,0.793469138628214,0.0,0,0,0,0,97237.40625,34.99943542480469,
1,3,0.275,0.41152971694514384,-0.04785229266803998,9.843216601815824,-3.723201342793927,0.9765774013885711,0.06103608758678569,0,0,0,0,97237.40625,34.99943542480469,
1,3,0.276,0.36367742427710387,-0.06699320973525598,9.881498435950256,-4.943923094529641,1.4648661020828566,-0.12207217517357138,0,0,0,0,97234.046875,34.994789123535156,
1,3,0.278,0.2679728389410239,-0.10527504386968796,9.919780270084688,-5.3101396200503554,0.7324330510414283,-0.18310826276035708,0,0,0,0,97234.046875,34.994789123535156,
1,3,0.279,0.35410696574349587,-0.057422751201647984,10.082478065156025,-4.638742656595713,1.0376134889753568,0.30518043793392846,0,0,0,0,97234.046875,34.994789123535156,
1,3,0.281,0.3445365072098879,0.014355687800411996,10.221249713893341,-4.089417868314642,1.2207217517357138,-0.06103608758678569,0,0,0,0,97235.078125,34.99943542480469,
1,3,0.282,0.3397512779430839,0.004785229266803998,10.355236133363853,-2.502479591058213,0.9155413138017854,0.24414435034714277,0,0,0,0,97235.078125,34.99943542480469,
1,3,0.283,0.3876035706111239,0.04785229266803998,10.470081635767148,-2.6855878538185705,0.793469138628214,0.5493247882810712,0,0,0,0,97235.078125,34.99943542480469,
1,3,0.285,0.3158251316090639,-0.014355687800411996,10.465296406500345,-2.197299153124285,0.7324330510414283,-0.06103608758678569,0,0,0,0,97235.078125,34.99943542480469,
1,3,0.286,0.2966842145418479,-0.043067063401235985,10.46051117723354,-1.8921187151903565,0.36621652552071415,-0.06103608758678569,0,0,0,0,97237.6796875,34.990142822265625,
1,3,0.288,0.3110399023422599,0.009570458533607997,10.302598611429008,-1.6479743648432137,-0.12207217517357138,0.24414435034714277,0,0,0,0,97237.6796875,34.990142822265625,
1,3,0.289,0.2966842145418479,-0.004785229266803998,10.417444113832305,-0.36621652552071415,-0.24414435034714277,0.5493247882810712,0,0,0,0,97237.6796875,34.990142822265625,
1,3,0.291,0.3588921950102999,0.0,10.422229343099108,0.06103608758678569,-0.36621652552071415,0.30518043793392846,0,0,0,0,97235.078125,34.99943542480469,
1,3,0.292,0.38281834134431986,0.06220798046845198,10.398303196765088,0.5493247882810712,-0.5493247882810712,-0.06103608758678569,0,0,0,0,97235.078125,34.99943542480469,
1,3,0.294,0.3876035706111239,0.08613412680247197,10.336095216296636,0.48828870069428554,-0.30518043793392846,0.6713969634546426,0,0,0,0,97235.078125,34.99943542480469,
1,3,0.295,0.36367742427710387,0.0,10.130330357824064,0.0,-0.48828870069428554,0.30518043793392846,0,0,0,0,97235.078125,34.99943542480469,
1,3,0.297,0.3684626535439079,0.06699320973525598,10.422229343099108,-0.48828870069428554,-0.30518043793392846,0.18310826276035708,0,0,0,0,97239.7421875,34.99943542480469,
1,3,0.298,0.42110017547875184,0.10048981460288396,10.321739528496224,-1.0376134889753568,-0.6713969634546426,0.48828870069428554,0,0,0,0,97239.7421875,34.99943542480469,
1,3,0.299,0.41152971694514384,0.004785229266803998,10.226034943160144,-1.0376134889753568,-0.18310826276035708,0.48828870069428554,0,0,0,0,97239.7421875,34.99943542480469,
1,3,0.301,0.37324788281071186,-0.057422751201647984,10.278672465094989,-1.0376134889753568,-0.42725261310749985,0.30518043793392846,0,0,0,0,97237.40625,34.99943542480469,
1,3,0.302,0.40195925841153585,0.02392614633401999,10.403088426031893,-0.6713969634546426,-0.6713969634546426,0.18310826276035708,0,0,0,0,97237.40625,34.99943542480469,
1,3,0.304,0.40195925841153585,-0.04785229266803998,10.273887235828184,-0.6103608758678569,-0.36621652552071415,0.36621652552071415,0,0,0,0,97237.40625,34.99943542480469,
1,3,0.305,0.36367742427710387,-0.03828183413443199,10.163826962691692,0.0,-0.6713969634546426,0.5493247882810712,0,0,0,0,97237.40625,34.99943542480469,
1,3,0.307,0.46416723887998784,0.004785229266803998,10.240390630960556,0.30518043793392846,-0.42725261310749985,0.5493247882810712,0,0,0,0,97235.3515625,34.990142822265625,
1,3,0.308,0.4593820096131839,0.07656366826886397,10.202108796826124,0.36621652552071415,-0.6713969634546426,0.24414435034714277,0,0,0,0,97235.3515625,34.990142822265625,
1,3,0.31,0.48809338521400786,-0.06699320973525598,10.10161898222324,0.6103608758678569,-0.48828870069428554,0.24414435034714277,0,0,0,0,97235.3515625,34.990142822265625,
1,3,0.311,0.43545586327916386,-0.10048981460288396,10.034625772487985,0.8545052262149997,-0.793469138628214,0.24414435034714277,0,0,0,0,97235.3515625,34.990142822265625,
1,3,0.312,0.4402410925459678,-0.16269779507133594,10.149471274891281,0.9765774013885711,-0.9155413138017854,0.42725261310749985,0,0,0,0,97235.3515625,34.990142822265625,
1,3,0.314,0.5168047608148318,-0.16269779507133594,9.929350728618296,0.6713969634546426,-1.1596856641489282,0.12207217517357138,0,0,0,0,97235.3515625,34.990142822265625,
1,3,0.315,0.5120195315480278,-0.19140917067215993,10.034625772487985,0.793469138628214,-1.0376134889753568,0.18310826276035708,0,0,0,0,97235.3515625,34.990142822265625,
1,3,0.317,0.5407309071488519,-0.14355687800411995,9.972417792019533,1.2817578393224995,-0.24414435034714277,-0.18310826276035708,0,0,0,0,97241.046875,34.994789123535156,
1,3,0.318,0.5359456778820478,-0.18183871213855193,10.001129167620357,0.9155413138017854,-0.5493247882810712,0.06103608758678569,0,0,0,0,97241.046875,34.994789123535156,
1,3,0.32,0.5646570534828718,-0.15791256580453195,10.010699626153965,0.793469138628214,-0.9155413138017854,0.24414435034714277,0,0,0,0,97241.046875,34.994789123535156,
1,3,0.321,0.3206103608758679,-0.14355687800411995,9.986773479819945,0.18310826276035708,-0.42725261310749985,0.12207217517357138,0,0,0,0,97234.046875,34.994789123535156,
1,3,0.323,0.42588540474555586,-0.18183871213855193,9.919780270084688,-0.06103608758678569,-0.24414435034714277,-0.18310826276035708,0,0,0,0,97234.046875,34.994789123535156,
1,3,0.324,0.3876035706111239,-0.2823285267414359,9.91020981155108,0.18310826276035708,-0.18310826276035708,0.0,0,0,0,0,97234.046875,34.994789123535156,
1,3,0.326,0.3876035706111239,-0.2775432974746319,9.900639353017473,0.5493247882810712,-0.12207217517357138,0.06103608758678569,0,0,0,0,97234.046875,34.994789123535156,
1,3,0.327,0.3876035706111239,-0.24404669260700393,9.876713206683453,0.6713969634546426,-0.06103608758678569,0.24414435034714277,0,0,0,0,97230.9609375,34.98085403442383,
1,3,0.328,0.41152971694514384,-0.20576485847257192,9.881498435950256,0.9765774013885711,-0.30518043793392846,0.0,0,0,0,0,97230.9609375,34.98085403442383,
1,3,0.33,0.47852292668039986,-0.19619439993896393,9.852787060349433,1.1596856641489282,-0.24414435034714277,-0.18310826276035708,0,0,0,0,97230.9609375,34.98085403442383,
1,3,0.331,0.39238879987792785,-0.2249057755397879,9.876713206683453,0.6103608758678569,-0.36621652552071415,0.0,0,0,0,0,97230.40625,34.99943542480469,
1,3,0.333,0.3780331120775159,-0.24883192187380793,9.876713206683453,0.42725261310749985,0.0,0.0,0,0,0,0,97230.40625,34.99943542480469,
1,3,0.334,0.40195925841153585,-0.18183871213855193,9.929350728618296,-0.06103608758678569,-0.7324330510414283,0.18310826276035708,0,0,0,0,97230.40625,34.99943542480469,
1,3,0.336,0.3493217364766919,-0.16269779507133594,9.943706416418708,-0.793469138628214,0.0,-0.12207217517357138,0,0,0,0,97231.7109375,34.994789123535156,
1,3,0.337,0.3349660486762799,-0.18183871213855193,9.776223392080569,-0.5493247882810712,0.06103608758678569,-0.42725261310749985,0,0,0,0,97231.7109375,34.994789123535156,
1,3,0.339,0.2727580682078279,-0.15791256580453195,9.809719996948196,0.18310826276035708,-0.06103608758678569,-0.24414435034714277,0,0,0,0,97231.7109375,34.994789123535156,
1,3,0.34,0.3206103608758679,-0.10527504386968796,9.761867704280156,0.42725261310749985,0.0,-0.48828870069428554,0,0,0,0,97231.7109375,34.994789123535156,
1,3,0.341,0.3158251316090639,-0.10048981460288396,9.838431372549021,0.6103608758678569,-0.48828870069428554,-0.36621652552071415,0,0,0,0,97235.078125,34.99943542480469,
1,3,0.343,0.3206103608758679,-0.043067063401235985,9.843216601815824,-0.18310826276035708,-0.12207217517357138,-0.18310826276035708,0,0,0,0,97235.078125,34.99943542480469,
1,3,0.344,0.3588921950102999,-0.15312733653772795,9.785793850614176,-0.30518043793392846,0.12207217517357138,-0.12207217517357138,0,0,0,0,97235.078125,34.99943542480469,
1,3,0.346,0.3206103608758679,-0.10527504386968796,9.891068894483865,-0.42725261310749985,-0.12207217517357138,-0.18310826276035708,0,0,0,0,97234.046875,34.994789123535156,
1,3,0.347,0.41152971694514384,0.0,10.020270084687573,-0.8545052262149997,0.0,-0.42725261310749985,0,0,0,0,97234.046875,34.994789123535156,
1,3,0.349,0.39238879987792785,0.0,10.06333714808881,-0.793469138628214,0.12207217517357138,-0.12207217517357138,0,0,0,0,97234.046875,34.994789123535156,
1,3,0.35,0.39238879987792785,0.009570458533607997,9.977203021286337,-1.2207217517357138,0.48828870069428554,0.12207217517357138,0,0,0,0,97234.046875,34.994789123535156,
1,3,0.352,0.3158251316090639,0.08134889753566797,10.039411001754788,-2.0141908903639276,0.18310826276035708,0.06103608758678569,0,0,0,0,97233.015625,34.990142822265625,
1,3,0.353,0.39238879987792785,0.019140917067215994,10.206894026092929,-2.2583352407110704,0.06103608758678569,0.18310826276035708,0,0,0,0,97233.015625,34.990142822265625,
1,3,0.355,0.36367742427710387,0.07656366826886397,10.202108796826124,-1.9531548027771422,0.18310826276035708,-0.18310826276035708,0,0,0,0,97233.015625,34.990142822265625,
1,3,0.356,0.3971740291447319,-0.03828183413443199,10.216464484626536,-1.8310826276035708,0.12207217517357138,0.06103608758678569,0,0,0,0,97236.375,34.994789123535156,
1,3,0.357,0.44502632181277185,0.07656366826886397,10.264316777294576,-0.793469138628214,0.18310826276035708,0.36621652552071415,0,0,0,0,97236.375,34.994789123535156,
1,3,0.359,0.4402410925459678,0.15312733653772795,10.297813382162204,-0.6713969634546426,0.36621652552071415,0.12207217517357138,0,0,0,0,97236.375,34.994789123535156,
1,3,0.36,0.42588540474555586,0.11963073167009997,10.235605401693752,-0.36621652552071415,-0.12207217517357138,-0.12207217517357138,0,0,0,0,97236.375,34.994789123535156,
1,3,0.362,0.36367742427710387,0.04785229266803998,10.273887235828184,-0.06103608758678569,-0.24414435034714277,0.42725261310749985,0,0,0,0,97232.75,34.99943542480469,
1,3,0.363,0.48809338521400786,0.08134889753566797,10.269102006561381,-0.18310826276035708,0.36621652552071415,-0.12207217517357138,0,0,0,0,97232.75,34.99943542480469,
1,3,0.365,0.47852292668039986,0.14834210727092395,10.345665674830245,-0.30518043793392846,0.06103608758678569,0.18310826276035708,0,0,0,0,97232.75,34.99943542480469,
1,3,0.366,0.43545586327916386,0.13877164873731596,10.398303196765088,-0.24414435034714277,-0.12207217517357138,0.30518043793392846,0,0,0,0,97234.046875,34.994789123535156,
1,3,0.368,0.4928786144808118,0.13398641947051196,10.422229343099108,-0.9765774013885711,-0.36621652552071415,0.5493247882810712,0,0,0,0,97234.046875,34.994789123535156,
1,3,0.369,0.5455161364156558,0.20097962920576792,10.441370260166325,-0.9155413138017854,-0.18310826276035708,0.30518043793392846,0,0,0,0,97234.046875,34.994789123535156,
1,3,0.37,0.48809338521400786,0.09570458533607996,10.302598611429008,-0.48828870069428554,0.0,0.5493247882810712,0,0,0,0,97234.046875,34.994789123535156,
1,3,0.372,0.5120195315480278,0.04785229266803998,10.307383840695813,0.18310826276035708,-0.18310826276035708,0.48828870069428554,0,0,0,0,97242.0703125,34.99943542480469,
1,3,0.373,0.5215899900816359,0.12441596093690396,10.297813382162204,-0.36621652552071415,-0.36621652552071415,0.24414435034714277,0,0,0,0,97242.0703125,34.99943542480469,
1,3,0.375,0.6077241168841078,0.06699320973525598,10.350450904097048,0.12207217517357138,-0.36621652552071415,0.30518043793392846,0,0,0,0,97242.0703125,34.99943542480469,
1,3,0.376,0.5933684290836958,0.14834210727092395,10.4126588845655,0.18310826276035708,-0.6713969634546426,0.18310826276035708,0,0,0,0,97235.078125,34.99943542480469,
1,3,0.378,0.6460059510185397,0.06699320973525598,10.350450904097048,0.48828870069428554,-0.6103608758678569,0.0,0,0,0,0,97235.078125,34.99943542480469,
1,3,0.379,0.6795025558861678,0.10527504386968796,10.326524757763028,0.36621652552071415,-0.7324330510414283,0.8545052262149997,0,0,0,0,97235.078125,34.99943542480469,
1,3,0.381,0.6460059510185397,0.04785229266803998,10.245175860227361,0.0,-0.6103608758678569,0.12207217517357138,0,0,0,0,97235.078125,34.99943542480469,
1,3,0.382,0.6842877851529717,0.07177843900205998,10.283457694361793,0.7324330510414283,-0.36621652552071415,0.30518043793392846,0,0,0,0,97238.7109375,34.994789123535156,
1,3,0.384,0.7082139314869917,0.04785229266803998,10.336095216296636,0.48828870069428554,-0.36621652552071415,-0.24414435034714277,0,0,0,0,97238.7109375,34.994789123535156,
1,3,0.385,0.7369253070878158,0.0,10.192538338292517,0.5493247882810712,-0.6713969634546426,0.24414435034714277,0,0,0,0,97238.7109375,34.994789123535156,
1,3,0.386,0.6986434729533838,0.009570458533607997,10.12554512855726,1.1596856641489282,-0.8545052262149997,-0.36621652552071415,0,0,0,0,97233.015625,34.990142822265625,
1,3,0.388,0.7273548485542077,0.07656366826886397,10.048981460288397,1.2817578393224995,-0.8545052262149997,0.0,0,0,0,0,97233.015625,34.990142822265625,
1,3,0.389,0.7464957656214237,0.05263752193484398,10.044196231021592,1.2207217517357138,-1.0376134889753568,0.30518043793392846,0,0,0,0,97233.015625,34.990142822265625,
1,3,0.391,0.8278446631570917,0.03828183413443199,10.11118944075685,1.4648661020828566,-0.5493247882810712,0.06103608758678569,0,0,0,0,97233.015625,34.990142822265625,
1,3,0.392,0.8134889753566797,-0.02392614633401999,10.025055313954377,1.0986495765621425,-0.8545052262149997,0.18310826276035708,0,0,0,0,97237.40625,34.99943542480469,
1,3,0.394,0.8661264972915237,0.03828183413443199,9.914995040817885,1.5259021896696423,-0.9765774013885711,0.24414435034714277,0,0,0,0,97237.40625,34.99943542480469,
1,3,0.395,0.7560662241550318,-0.05263752193484398,9.824075684748609,1.2817578393224995,-0.793469138628214,0.24414435034714277,0,0,0,0,97237.40625,34.99943542480469,
1,3,0.397,0.7847775997558557,-0.043067063401235985,9.895854123750668,1.770046540016785,-0.48828870069428554,0.30518043793392846,0,0,0,0,97234.046875,34.994789123535156,
1,3,0.398,0.7895628290226597,-0.004785229266803998,9.9341359578851,1.403830014496071,-0.9155413138017854,0.30518043793392846,0,0,0,0,97234.046875,34.994789123535156,
1,3,0.399,0.7464957656214237,0.019140917067215994,9.771438162813764,1.586938277256428,-0.9765774013885711,0.06103608758678569,0,0,0,0,97234.046875,34.994789123535156,
1,3,0.401,0.8087037460898757,0.06699320973525598,9.819290455481804,1.403830014496071,-1.0986495765621425,0.5493247882810712,0,0,0,0,97234.046875,34.994789123535156,
1,3,0.402,0.7225696192874037,0.057422751201647984,9.757082475013354,1.2817578393224995,-0.8545052262149997,-0.06103608758678569,0,0,0,0,97238.7109375,34.994789123535156,
1,3,0.404,0.7847775997558557,0.028711375600823992,9.685304036011292,1.0376134889753568,-0.42725261310749985,-0.18310826276035708,0,0,0,0,97238.7109375,34.994789123535156,
1,3,0.405,0.7177843900205998,-0.014355687800411996,9.661377889677272,0.793469138628214,-0.30518043793392846,-0.12207217517357138,0,0,0,0,97238.7109375,34.994789123535156,
1,3,0.407,0.7321400778210118,0.08613412680247197,9.752297245746549,0.8545052262149997,-0.6103608758678569,0.18310826276035708,0,0,0,0,97236.375,34.994789123535156,
1,3,0.408,0.7129991607537958,0.06220798046845198,9.804934767681393,0.06103608758678569,0.12207217517357138,0.12207217517357138,0,0,0,0,97236.375,34.994789123535156,
1,3,0.41,0.7417105363546197,0.057422751201647984,9.795364309147784,-0.18310826276035708,0.12207217517357138,-0.06103608758678569,0,0,0,0,97236.375,34.994789123535156,
1,3,0.411,0.6938582436865798,0.02392614633401999,9.733156328679332,-0.793469138628214,0.06103608758678569,-0.18310826276035708,0,0,0,0,97236.375,34.994789123535156,
1,3,0.413,0.6507911802853438,0.09091935606927597,9.881498435950256,-1.6479743648432137,0.6713969634546426,-0.06103608758678569,0,0,0,0,97229.375,34.994789123535156,
1,3,0.414,0.6603616388189518,0.03828183413443199,9.824075684748609,-2.0752269779507135,0.5493247882810712,0.18310826276035708,0,0,0,0,97229.375,34.994789123535156,
1,3,0.415,0.7273548485542077,0.11963073167009997,9.848001831082628,-2.6855878538185705,0.48828870069428554,-0.18310826276035708,0,0,0,0,97229.375,34.994789123535156,
1,3,0.417,0.6986434729533838,-0.009570458533607997,10.025055313954377,-3.54009308003357,1.1596856641489282,0.18310826276035708,0,0,0,0,97237.6796875,34.990142822265625,
1,3,0.418,0.6603616388189518,0.014355687800411996,10.07769283588922,-3.54009308003357,0.9155413138017854,0.0,0,0,0,0,97237.6796875,34.990142822265625,
1,3,0.42,0.6364354924849318,0.004785229266803998,10.120759899290457,-3.8452735179674984,0.7324330510414283,0.06103608758678569,0,0,0,0,97237.6796875,34.990142822265625,
1,3,0.421,0.6125093461509118,-0.004785229266803998,10.197323567559321,-3.0518043793392846,1.0986495765621425,0.0,0,0,0,0,97237.6796875,34.990142822265625,
1,3,0.423,0.5694422827496758,-0.04785229266803998,10.360021362630656,-2.197299153124285,0.9155413138017854,-0.06103608758678569,0,0,0,0,97238.7109375,34.994789123535156,
1,3,0.424,0.48809338521400786,0.057422751201647984,10.31695429922942,-2.3193713282978563,0.48828870069428554,-0.06103608758678569,0,0,0,0,97238.7109375,34.994789123535156,
1,3,0.426,0.44502632181277185,0.004785229266803998,10.355236133363853,-1.1596856641489282,0.30518043793392846,0.18310826276035708,0,0,0,0,97238.7109375,34.994789123535156,
1,3,0.427,0.5311604486152438,0.009570458533607997,10.345665674830245,-0.5493247882810712,0.0,0.06103608758678569,0,0,0,0,97237.40625,34.99943542480469,
1,3,0.428,0.4593820096131839,0.13877164873731596,10.288242923628596,-0.30518043793392846,0.0,-0.06103608758678569,0,0,0,0,97237.40625,34.99943542480469,
1,3,0.43,0.4593820096131839,0.11963073167009997,10.283457694361793,-0.06103608758678569,-0.48828870069428554,0.06103608758678569,0,0,0,0,97237.40625,34.99943542480469,
1,3,0.431,0.5407309071488519,0.12920119020370796,10.259531548027773,0.0,-0.42725261310749985,-0.24414435034714277,0,0,0,0,97237.40625,34.99943542480469,
1,3,0.433,0.43545586327916386,0.11484550240329597,10.288242923628596,-0.06103608758678569,0.0,-0.36621652552071415,0,0,0,0,97231.7109375,34.994789123535156,
1,3,0.434,0.47852292668039986,0.08134889753566797,10.312169069962616,-0.42725261310749985,-0.24414435034714277,-0.24414435034714277,0,0,0,0,97231.7109375,34.994789123535156,
1,3,0.436,0.44502632181277185,0.13398641947051196,10.273887235828184,-0.7324330510414283,-0.36621652552071415,0.24414435034714277,0,0,0,0,97231.7109375,34.994789123535156,
1,3,0.437,0.38281834134431986,0.07177843900205998,10.331309987029833,-0.9155413138017854,-0.30518043793392846,0.24414435034714277,0,0,0,0,97234.046875,34.994789123535156,
1,3,0.439,0.49766384374761585,0.06220798046845198,10.36480659189746,-1.0376134889753568,-0.12207217517357138,-0.12207217517357138,0,0,0,0,97234.046875,34.994789123535156,
1,3,0.44,0.39238879987792785,0.028711375600823992,10.455725947966737,-1.0986495765621425,-0.24414435034714277,0.12207217517357138,0,0,0,0,97234.046875,34.994789123535156,
1,3,0.442,0.40195925841153585,-0.019140917067215994,10.527504386968797,-1.403830014496071,-0.12207217517357138,0.18310826276035708,0,0,0,0,97234.046875,34.994789123535156,
1,3,0.443,0.42110017547875184,-0.02392614633401999,10.321739528496224,-0.9155413138017854,-0.12207217517357138,0.24414435034714277,0,0,0,0,97233.015625,34.990142822265625,
1,3,0.444,0.43545586327916386,-0.11006027313649196,10.360021362630656,-0.8545052262149997,-0.42725261310749985,0.24414435034714277,0,0,0,0,97233.015625,34.990142822265625,
1,3,0.446,0.43067063401235983,-0.06220798046845198,10.206894026092929,-0.36621652552071415,-0.42725261310749985,0.18310826276035708,0,0,0,0,97233.015625,34.990142822265625,
1,3,0.447,0.43067063401235983,-0.028711375600823992,10.355236133363853,0.42725261310749985,-0.793469138628214,0.30518043793392846,0,0,0,0,97235.078125,34.99943542480469,
1,3,0.449,0.46895246814679187,-0.10048981460288396,10.178182650492104,0.36621652552071415,-0.6103608758678569,-0.06103608758678569,0,0,0,0,97235.078125,34.99943542480469,
1,3,0.45,0.44502632181277185,-0.07656366826886397,10.11118944075685,0.6713969634546426,-1.2207217517357138,-0.24414435034714277,0,0,0,0,97235.078125,34.99943542480469,
1,3,0.452,0.3876035706111239,-0.15791256580453195,10.192538338292517,0.793469138628214,-0.7324330510414283,0.48828870069428554,0,0,0,0,97234.046875,34.994789123535156,
1,3,0.453,0.41152971694514384,-0.043067063401235985,9.9341359578851,1.0986495765621425,-0.9155413138017854,-0.6713969634546426,0,0,0,0,97234.046875,34.994789123535156,
1,3,0.455,0.3971740291447319,-0.10527504386968796,10.010699626153965,1.0376134889753568,-0.8545052262149997,0.0,0,0,0,0,97234.046875,34.994789123535156,
1,3,0.456,0.3971740291447319,-0.07177843900205998,10.001129167620357,0.9155413138017854,-0.7324330510414283,0.24414435034714277,0,0,0,0,97234.046875,34.994789123535156,
1,3,0.457,0.47852292668039986,-0.06220798046845198,10.034625772487985,1.2207217517357138,-0.9765774013885711,0.30518043793392846,0,0,0,0,97229.375,34.994789123535156,
1,3,0.459,0.4593820096131839,-0.17705348287174794,9.88628366521706,1.2207217517357138,-1.0376134889753568,0.18310826276035708,0,0,0,0,97229.375,34.994789123535156,
1,3,0.46,0.39238879987792785,-0.12441596093690396,9.65659266041047,0.5493247882810712,-0.8545052262149997,0.06103608758678569,0,0,0,0,97229.375,34.994789123535156,
1,3,0.462,0.4402410925459678,-0.14355687800411995,9.852787060349433,1.0376134889753568,-0.42725261310749985,0.24414435034714277,0,0,0,0,97236.375,34.994789123535156,
1,3,0.463,0.40195925841153585,-0.13877164873731596,9.871927977416648,0.9155413138017854,-0.7324330510414283,0.18310826276035708,0,0,0,0,97236.375,34.994789123535156,
1,3,0.465,0.40195925841153585,-0.08613412680247197,9.91020981155108,0.793469138628214,-0.36621652552071415,0.06103608758678569,0,0,0,0,97236.375,34.994789123535156,
1,3,0.466,0.43545586327916386,-0.19140917067215993,9.895854123750668,0.48828870069428554,-0.5493247882810712,0.24414435034714277,0,0,0,0,97236.375,34.994789123535156,
1,3,0.468,0.49766384374761585,-0.07177843900205998,9.919780270084688,0.48828870069428554,-0.36621652552071415,0.30518043793392846,0,0,0,0,97234.046875,34.994789123535156,
1,3,0.469,0.43067063401235983,-0.19619439993896393,10.001129167620357,0.48828870069428554,-0.48828870069428554,0.06103608758678569,0,0,0,0,97234.046875,34.994789123535156,
1,3,0.471,0.3206103608758679,-0.24404669260700393,9.991558709086748,0.5493247882810712,-1.0376134889753568,0.42725261310749985,0,0,0,0,97234.046875,34.994789123535156,
1,3,0.472,0.42110017547875184,-0.15791256580453195,10.044196231021592,0.6103608758678569,-0.30518043793392846,0.18310826276035708,0,0,0,0,97237.40625,34.99943542480469,
1,3,0.473,0.4402410925459678,-0.12920119020370796,10.015484855420768,0.6713969634546426,-0.06103608758678569,-0.24414435034714277,0,0,0,0,97237.40625,34.99943542480469,
1,3,0.475,0.3780331120775159,-0.19140917067215993,10.039411001754788,1.3427939269092852,-0.18310826276035708,-0.42725261310749985,0,0,0,0,97237.40625,34.99943542480469,
1,3,0.476,0.2918989852750439,-0.16269779507133594,9.953276874952317,1.5259021896696423,0.0,-0.18310826276035708,0,0,0,0,97237.40625,34.99943542480469,
1,3,0.478,0.38281834134431986,-0.12441596093690396,9.91020981155108,1.2817578393224995,-0.18310826276035708,-0.18310826276035708,0,0,0,0,97235.078125,34.99943542480469,
1,3,0.479,0.30146944380865187,-0.11006027313649196,9.938921187151905,1.5259021896696423,-0.30518043793392846,-0.12207217517357138,0,0,0,0,97235.078125,34.99943542480469,
1,3,0.481,0.2966842145418479,-0.043067063401235985,10.058551918822005,0.6713969634546426,-0.06103608758678569,-0.24414435034714277,0,0,0,0,97235.078125,34.99943542480469,
1,3,0.482,0.3684626535439079,-0.07656366826886397,10.015484855420768,1.2207217517357138,-0.24414435034714277,-0.42725261310749985,0,0,0,0,97241.046875,34.994789123535156,
1,3,0.484,0.3588921950102999,-0.057422751201647984,10.206894026092929,0.9765774013885711,0.0,-0.36621652552071415,0,0,0,0,97241.046875,34.994789123535156,
1,3,0.485,0.3397512779430839,-0.05263752193484398,9.991558709086748,0.6103608758678569,0.0,-0.42725261310749985,0,0,0,0,97241.046875,34.994789123535156,
1,3,0.486,0.3301808194094759,-0.19619439993896393,10.06333714808881,0.5493247882810712,-0.48828870069428554,-0.42725261310749985,0,0,0,0,97241.046875,34.994789123535156,
1,3,0.488,0.35410696574349587,0.009570458533607997,10.159041733424889,0.9155413138017854,-0.793469138628214,-0.06103608758678569,0,0,0,0,97234.046875,34.994789123535156,
1,3,0.489,0.38281834134431986,-0.03349660486762799,10.025055313954377,1.2817578393224995,-0.42725261310749985,-0.12207217517357138,0,0,0,0,97234.046875,34.994789123535156,
1,3,0.491,0.3397512779430839,-0.03828183413443199,10.120759899290457,1.4648661020828566,-0.24414435034714277,-0.6713969634546426,0,0,0,0,97234.046875,34.994789123535156,
1,3,0.492,0.3253955901426719,-0.13398641947051196,10.159041733424889,1.2207217517357138,-0.30518043793392846,-0.24414435034714277,0,0,0,0,97234.046875,34.994789123535156,
1,3,0.494,0.3493217364766919,-0.02392614633401999,10.10161898222324,1.2817578393224995,-0.6713969634546426,-0.42725261310749985,0,0,0,0,97234.046875,34.994789123535156,
1,3,0.495,0.3445365072098879,0.014355687800411996,10.187753109025712,1.5259021896696423,-0.7324330510414283,-0.06103608758678569,0,0,0,0,97234.046875,34.994789123535156,
1,3,0.497,0.3253955901426719,-0.03828183413443199,10.12554512855726,0.9765774013885711,-0.7324330510414283,-0.18310826276035708,0,0,0,0,97234.046875,34.994789123535156,
1,3,0.498,0.2918989852750439,0.019140917067215994,10.264316777294576,1.1596856641489282,-0.6713969634546426,-0.30518043793392846,0,0,0,0,97230.6796875,34.990142822265625,
1,3,0.5,0.39238879987792785,-0.03349660486762799,10.06333714808881,0.36621652552071415,-0.36621652552071415,-0.30518043793392846,0,0,0,0,97230.6796875,34.990142822265625,
1,3,0.501,0.3445365072098879,-0.07656366826886397,10.221249713893341,0.42725261310749985,-0.5493247882810712,-0.18310826276035708,0,0,0,0,97230.6796875,34.990142822265625,
1,3,0.502,0.3780331120775159,-0.05263752193484398,10.297813382162204,0.5493247882810712,-0.36621652552071415,0.06103608758678569,0,0,0,0,97238.421875,35.00408172607422,
1,3,0.504,0.41631494621194787,0.009570458533607997,10.173397421225301,0.0,-0.24414435034714277,-0.18310826276035708,0,0,0,0,97238.421875,35.00408172607422,
1,3,0.505,0.45459678034637985,0.019140917067215994,10.249961089494164,0.0,-0.18310826276035708,0.06103608758678569,0,0,0,0,97238.421875,35.00408172607422,
1,3,0.507,0.42588540474555586,0.004785229266803998,10.092048523689632,-0.36621652552071415,-0.6713969634546426,-0.06103608758678569,0,0,0,0,97238.421875,35.00408172607422,
1,3,0.508,0.39238879987792785,-0.14834210727092395,10.163826962691692,-0.12207217517357138,0.06103608758678569,0.18310826276035708,0,0,0,0,97235.078125,34.99943542480469,
1,3,0.51,0.47373769741359584,0.019140917067215994,10.240390630960556,-1.0986495765621425,-0.24414435034714277,-0.12207217517357138,0,0,0,0,97235.078125,34.99943542480469,
1,3,0.511,0.40195925841153585,-0.05263752193484398,10.139900816357672,-0.8545052262149997,-0.06103608758678569,-0.24414435034714277,0,0,0,0,97235.078125,34.99943542480469,
1,3,0.513,0.4498115510795758,0.004785229266803998,10.149471274891281,-0.9155413138017854,0.18310826276035708,-0.42725261310749985,0,0,0,0,97234.046875,34.994789123535156,
1,3,0.514,0.47373769741359584,-0.07177843900205998,10.159041733424889,-0.9765774013885711,0.12207217517357138,0.12207217517357138,0,0,0,0,97234.046875,34.994789123535156,
1,3,0.515,0.43067063401235983,-0.014355687800411996,10.173397421225301,-0.7324330510414283,-0.30518043793392846,-0.18310826276035708,0,0,0,0,97234.046875,34.994789123535156,
1,3,0.517,0.5598718242160678,0.043067063401235985,10.235605401693752,-1.0376134889753568,-0.12207217517357138,0.30518043793392846,0,0,0,0,97234.046875,34.994789123535156,
1,3,0.518,0.40674448767833987,-0.08134889753566797,10.096833752956437,-1.0986495765621425,0.0,0.12207217517357138,0,0,0,0,97233.75,35.00408172607422,
1,3,0.52,0.43545586327916386,-0.014355687800411996,10.144686045624477,-1.0376134889753568,-0.06103608758678569,0.12207217517357138,0,0,0,0,97233.75,35.00408172607422,
1,3,0.521,0.46895246814679187,-0.03828183413443199,10.178182650492104,-0.8545052262149997,-0.42725261310749985,0.18310826276035708,0,0,0,0,97233.75,35.00408172607422,
1,3,0.523,0.46895246814679187,-0.05263752193484398,10.154256504158084,-0.6103608758678569,-0.24414435034714277,0.6103608758678569,0,0,0,0,97236.375,34.994789123535156,
1,3,0.524,0.5168047608148318,-0.014355687800411996,10.096833752956437,-0.42725261310749985,-0.12207217517357138,0.18310826276035708,0,0,0,0,97236.375,34.994789123535156,
1,3,0.526,0.5024490730144199,-0.05263752193484398,10.0537666895552,-0.48828870069428554,-0.42725261310749985,0.06103608758678569,0,0,0,0,97236.375,34.994789123535156,
1,3,0.527,0.49766384374761585,-0.07177843900205998,10.0537666895552,-0.9155413138017854,-0.06103608758678569,0.12207217517357138,0,0,0,0,97236.375,34.994789123535156,
1,3,0.528,0.5263752193484398,-0.07177843900205998,10.020270084687573,-0.36621652552071415,-0.36621652552071415,0.06103608758678569,0,0,0,0,97236.375,34.994789123535156,
1,3,0.53,0.4928786144808118,-0.08134889753566797,10.044196231021592,-0.24414435034714277,-0.42725261310749985,0.18310826276035708,0,0,0,0,97236.375,34.994789123535156,
1,3,0.531,0.47852292668039986,-0.03828183413443199,9.986773479819945,-0.48828870069428554,-0.36621652552071415,0.18310826276035708,0,0,0,0,97236.375,34.994789123535156,
1,3,0.533,0.46895246814679187,0.009570458533607997,10.001129167620357,-0.6713969634546426,-0.36621652552071415,-0.12207217517357138,0,0,0,0,97236.375,34.994789123535156,
1,3,0.534,0.5215899900816359,-0.009570458533607997,10.039411001754788,-0.7324330510414283,-0.48828870069428554,0.18310826276035708,0,0,0,0,97236.375,34.994789123535156,
1,3,0.536,0.5024490730144199,-0.04785229266803998,10.058551918822005,-0.793469138628214,-0.42725261310749985,0.0,0,0,0,0,97236.375,34.994789123535156,
1,3,0.537,0.5024490730144199,-0.04785229266803998,9.977203021286337,-0.9155413138017854,-0.30518043793392846,0.24414435034714277,0,0,0,0,97236.375,34.994789123535156,
1,3,0.539,0.6125093461509118,0.014355687800411996,10.034625772487985,-1.0376134889753568,0.06103608758678569,0.36621652552071415,0,0,0,0,97235.3515625,34.990142822265625,
1,3,0.54,0.5885831998168918,0.02392614633401999,9.986773479819945,-0.7324330510414283,-0.30518043793392846,0.0,0,0,0,0,97235.3515625,34.990142822265625,
1,3,0.542,0.48809338521400786,-0.043067063401235985,9.996343938353553,-0.7324330510414283,-0.06103608758678569,0.24414435034714277,0,0,0,0,97235.3515625,34.990142822265625,
1,3,0.543,0.5215899900816359,0.057422751201647984,9.929350728618296,0.12207217517357138,-0.36621652552071415,0.36621652552071415,0,0,0,0,97229.375,34.994789123535156,
1,3,0.544,0.5359456778820478,0.06699320973525598,9.9341359578851,-0.12207217517357138,-0.24414435034714277,0.12207217517357138,0,0,0,0,97229.375,34.994789123535156,
1,3,0.546,0.49766384374761585,0.04785229266803998,9.953276874952317,-0.18310826276035708,-0.18310826276035708,0.12207217517357138,0,0,0,0,97229.375,34.994789123535156,
1,3,0.547,0.5646570534828718,-0.004785229266803998,9.98198825055314,-0.12207217517357138,-0.24414435034714277,-0.12207217517357138,0,0,0,0,97229.375,34.994789123535156,
1,3,0.549,0.5646570534828718,-0.028711375600823992,9.98198825055314,-0.18310826276035708,-0.18310826276035708,0.18310826276035708,0,0,0,0,97236.375,34.994789123535156,
1,3,0.55,0.5742275120164798,0.06699320973525598,9.98198825055314,-0.6103608758678569,-0.30518043793392846,0.06103608758678569,0,0,0,0,97236.375,34.994789123535156,
1,3,0.552,0.5742275120164798,0.014355687800411996,9.88628366521706,-0.7324330510414283,-0.36621652552071415,0.06103608758678569,0,0,0,0,97236.375,34.994789123535156,
1,3,0.553,0.48809338521400786,-0.009570458533607997,10.039411001754788,-0.48828870069428554,-0.30518043793392846,0.06103608758678569,0,0,0,0,97236.375,34.994789123535156,
1,3,0.555,0.5598718242160678,0.019140917067215994,9.948491645685513,-0.6103608758678569,0.12207217517357138,0.12207217517357138,0,0,0,0,97236.375,34.994789123535156,
1,3,0.556,0.5790127412832838,0.057422751201647984,10.039411001754788,-0.5493247882810712,-0.12207217517357138,0.12207217517357138,0,0,0,0,97236.375,34.994789123535156,
1,3,0.557,0.6364354924849318,0.019140917067215994,10.106404211490045,-0.6103608758678569,0.0,0.18310826276035708,0,0,0,0,97237.40625,34.99943542480469,
1,3,0.559,0.5503013656824598,-0.019140917067215994,10.001129167620357,-0.6713969634546426,0.36621652552071415,0.0,0,0,0,0,97237.40625,34.99943542480469,
1,3,0.56,0.6603616388189518,-0.11484550240329597,10.068122377355612,-0.24414435034714277,0.18310826276035708,0.24414435034714277,0,0,0,0,97237.40625,34.99943542480469,
1,3,0.562,0.6172945754177158,0.004785229266803998,9.967632562752728,-0.36621652552071415,-0.12207217517357138,0.24414435034714277,0,0,0,0,97237.40625,34.99943542480469,
1,3,0.563,0.6364354924849318,-0.07177843900205998,10.06333714808881,-0.30518043793392846,-0.06103608758678569,0.42725261310749985,0,0,0,0,97237.40625,34.99943542480469,
1,3,0.565,0.6029388876173037,0.019140917067215994,10.144686045624477,-0.6103608758678569,0.06103608758678569,0.18310826276035708,0,0,0,0,97237.40625,34.99943542480469,
1,3,0.566,0.6077241168841078,-0.014355687800411996,10.06333714808881,-0.48828870069428554,0.24414435034714277,-0.06103608758678569,0,0,0,0,97237.40625,34.99943542480469,
1,3,0.568,0.6268650339513238,0.009570458533607997,10.154256504158084,-0.24414435034714277,0.24414435034714277,0.30518043793392846,0,0,0,0,97234.046875,34.994789123535156,
1,3,0.569,0.5694422827496758,-0.004785229266803998,10.11118944075685,-0.6713969634546426,0.12207217517357138,-0.18310826276035708,0,0,0,0,97234.046875,34.994789123535156,
1,3,0.571,0.6220798046845198,0.05263752193484398,10.264316777294576,-0.36621652552071415,0.24414435034714277,0.06103608758678569,0,0,0,0,97234.046875,34.994789123535156,
1,3,0.572,0.5024490730144199,0.07656366826886397,10.321739528496224,-0.9765774013885711,0.18310826276035708,0.0,0,0,0,0,97234.046875,34.994789123535156,
1,3,0.573,0.5981536583504998,-0.08613412680247197,10.192538338292517,-0.793469138628214,-0.06103608758678569,-0.06103608758678569,0,0,0,0,97234.046875,34.994789123535156,
1,3,0.575,0.5311604486152438,0.019140917067215994,10.302598611429008,-0.06103608758678569,-0.30518043793392846,0.18310826276035708,0,0,0,0,97234.046875,34.994789123535156,
1,3,0.576,0.5263752193484398,-0.06220798046845198,10.240390630960556,-0.36621652552071415,0.30518043793392846,0.24414435034714277,0,0,0,0,97234.046875,34.994789123535156,
1,3,0.578,0.5837979705500878,0.06220798046845198,10.302598611429008,-0.06103608758678569,-0.18310826276035708,0.18310826276035708,0,0,0,0,97236.375,34.994789123535156,
1,3,0.579,0.5072343022812238,0.019140917067215994,10.264316777294576,-0.18310826276035708,-0.12207217517357138,0.12207217517357138,0,0,0,0,97236.375,34.994789123535156,
1,3,0.581,0.5790127412832838,-0.08134889753566797,10.202108796826124,-0.30518043793392846,-0.12207217517357138,0.24414435034714277,0,0,0,0,97236.375,34.994789123535156,
1,3,0.582,0.47852292668039986,0.028711375600823992,10.240390630960556,0.36621652552071415,-0.30518043793392846,0.06103608758678569,0,0,0,0,97236.375,34.994789123535156,
1,3,0.584,0.5503013656824598,-0.009570458533607997,10.206894026092929,0.6103608758678569,-0.6103608758678569,0.0,0,0,0,0,97234.046875,34.994789123535156,
1,3,0.585,0.5215899900816359,0.12441596093690396,10.168612191958497,0.48828870069428554,-0.30518043793392846,-0.06103608758678569,0,0,0,0,97234.046875,34.994789123535156,
1,3,0.586,0.42588540474555586,0.06699320973525598,10.211679255359732,-0.06103608758678569,-0.18310826276035708,-0.24414435034714277,0,0,0,0,97234.046875,34.994789123535156,
1,3,0.588,0.5072343022812238,0.09570458533607996,10.264316777294576,0.06103608758678569,-0.6713969634546426,-0.24414435034714277,0,0,0,0,97236.375,34.994789123535156,
1,3,0.589,0.4593820096131839,0.13877164873731596,10.154256504158084,-0.18310826276035708,-0.5493247882810712,-0.12207217517357138,0,0,0,0,97236.375,34.994789123535156,
1,3,0.591,0.3158251316090639,-0.08134889753566797,9.948491645685513,0.30518043793392846,-0.24414435034714277,0.06103608758678569,0,0,0,0,97236.375,34.994789123535156,
1,3,0.592,0.11006027313649196,0.03349660486762799,9.833646143282216,-0.8545052262149997,-0.42725261310749985,0.06103608758678569,0,0,0,0,97236.375,34.994789123535156,
1,3,0.594,-0.16748302433813994,-0.043067063401235985,9.785793850614176,-2.563515678644999,-0.36621652552071415,0.5493247882810712,0,0,0,0,97233.75,35.00408172607422,
1,3,0.595,-0.7991332875562678,0.009570458533607997,9.800149538414589,-7.263294422827497,-0.6713969634546426,3.4180209048599988,0,0,0,0,97233.75,35.00408172607422,
1,3,0.597,-1.2585152971694515,-0.18183871213855193,9.685304036011292,-10.803387502861067,0.0,6.2867170214389265,0,0,0,0,97233.75,35.00408172607422,
1,3,0.598,-1.2680857557030596,0.47852292668039986,9.88628366521706,-17.151140611886778,-0.24414435034714277,12.695506218051424,0,0,0,0,97232.75,34.99943542480469,
1,3,0.6,-1.2537300679026475,0.40195925841153585,10.178182650492104,-20.38605325398642,-0.18310826276035708,17.517357137407494,0,0,0,0,97232.75,34.99943542480469,
1,3,0.601,-0.7082139314869917,0.2679728389410239,10.288242923628596,-21.972991531242847,-0.12207217517357138,22.09506370641642,0,0,0,0,97232.75,34.99943542480469,
1,3,0.602,-0.13877164873731596,0.09570458533607996,10.326524757763028,-24.414435034714277,-2.3804074158846418,27.34416723887999,0,0,0,0,97232.75,34.99943542480469,
1,3,0.604,0.5024490730144199,-0.11963073167009997,10.714128328374152,-23.987182421606775,-3.173876554512856,29.236285954070347,0,0,0,0,97241.046875,34.994789123535156,
1,3,0.605,1.1101731898985276,-0.09091935606927597,10.8911818112459,-23.437857633325706,-3.9673456931410698,28.87006942854963,0,0,0,0,97241.046875,34.994789123535156,
1,3,0.607,1.2585152971694515,-0.17226825360494394,10.058551918822005,-19.775692378118563,-4.333562218661784,26.001373311970703,0,0,0,0,97241.046875,34.994789123535156,
1,3,0.608,1.4594949263752195,-0.3588921950102999,10.2930281528954,-15.99145494773785,-4.333562218661784,23.37682154573892,0,0,0,0,97239.7421875,34.99943542480469,
1,3,0.61,1.6939711604486154,-0.2584023804074159,9.972417792019533,-13.550011444266422,-3.9673456931410698,19.775692378118563,0,0,0,0,97239.7421875,34.99943542480469,
1,3,0.611,1.8470984969863433,0.37324788281071186,9.809719996948196,-13.61104753185321,-3.9063096055542843,15.136949721522852,0,0,0,0,97239.7421875,34.99943542480469,
1,3,0.613,1.7753200579842834,0.3158251316090639,9.690089265278097,-13.366903181506066,-3.4180209048599988,12.02410925459678,0,0,0,0,97239.7421875,34.99943542480469,
1,3,0.614,1.3972869459067676,0.043067063401235985,8.838318455786984,-15.014877546349279,-3.6011291676203556,10.681315327687496,0,0,0,0,97236.375,34.994789123535156,
1,3,0.615,1.1723811703669795,0.41631494621194787,8.54641947051194,-24.90272373540856,-3.6621652552071415,8.728160524910354,0,0,0,0,97236.375,34.994789123535156,
1,3,0.617,1.3494346532387276,1.0814618142977037,8.685191119249257,-35.889219501029984,-3.723201342793927,8.850232700083925,0,0,0,0,97236.375,34.994789123535156,
1,3,0.618,1.0958175020981156,1.2537300679026475,9.10629129472801,-46.204318303196764,-4.150453955901427,8.422980086976425,0,0,0,0,97236.375,34.994789123535156,
1,3,0.62,0.9331197070267797,0.7943480582894638,9.55131761654078,-63.233386739909974,-5.920500495918212,8.117799649042496,0,0,0,0,97236.375,34.994789123535156,
1,3,0.621,0.5885831998168918,-0.49766384374761585,13.934587624933243,-69.82528419928283,-9.521629663538567,7.995727473868925,0,0,0,0,97236.375,34.994789123535156,
1,3,0.623,-0.20097962920576792,-2.0097962920576795,12.690428015564203,-52.42999923704891,-13.122758831158924,6.775005722133211,0,0,0,0,97236.375,34.994789123535156,
1,3,0.624,-0.9905424582284277,-1.0383947508964677,10.723698786907761,-19.165331502250705,-12.268253604943924,6.8360418097199975,0,0,0,0,97236.375,34.994789123535156,
1,3,0.626,-0.6938582436865798,0.3445365072098879,11.006027313649197,-20.26398107881285,-13.18379491874571,7.263294422827497,0,0,0,0,97236.375,34.994789123535156,
1,3,0.627,-0.3062546730754559,0.7034287022201877,8.871815060654614,-37.170977340352486,-15.320057984283208,10.437170977340353,0,0,0,0,97236.375,34.994789123535156,
1,3,0.629,-0.5359456778820478,0.15312733653772795,9.776223392080569,-41.44350347142748,-16.174563210498206,11.535820553902495,0,0,0,0,97229.375,34.994789123535156,
1,3,0.63,-0.8517708094911117,-0.3493217364766919,11.331422903791868,-39.2462043183032,-17.090104524299992,12.268253604943924,0,0,0,0,97229.375,34.994789123535156,
1,3,0.631,-1.4116426337071795,-0.11484550240329597,11.68074464026856,-36.80476081483177,-16.052491035324636,14.221408407721066,0,0,0,0,97229.375,34.994789123535156,
1,3,0.633,-1.3685755703059435,0.2584023804074159,10.2930281528954,-32.59327077134356,-13.366903181506066,14.16037232013428,0,0,0,0,97229.375,34.994789123535156,
1,3,0.634,-1.2298039215686276,0.36367742427710387,9.809719996948196,-33.508812085145344,-13.244831006332495,14.953841458762493,0,0,0,0,97236.375,34.994789123535156,
1,3,0.636,-0.6412207217517358,0.3158251316090639,10.216464484626536,-40.83314259555963,-14.282444495307852,14.16037232013428,0,0,0,0,97236.375,34.994789123535156,
1,3,0.637,-0.004785229266803998,-0.2201205462729839,10.479652094300757,-43.274586099031055,-14.343480582894637,12.02410925459678,0,0,0,0,97236.375,34.994789123535156,
1,3,0.639,0.10527504386968796,-0.4928786144808118,10.98688639658198,-44.12909132524605,-14.648661020828566,10.864423590447853,0,0,0,0,97237.40625,34.99943542480469,
1,3,0.64,0.48809338521400786,-0.2631876096742199,10.895967040512705,-42.481116960402844,-15.197985809109637,8.117799649042496,0,0,0,0,97237.40625,34.99943542480469,
1,3,0.642,0.5981536583504998,-0.2871137560082399,10.498793011367972,-41.74868390936141,-15.075913633936066,6.713969634546426,0,0,0,0,97237.40625,34.99943542480469,
1,3,0.643,0.8087037460898757,-0.3445365072098879,10.575356679636837,-42.236972610055695,-14.953841458762493,5.676356145571069,0,0,0,0,97237.40625,34.99943542480469,
1,3,0.644,0.7608514534218357,-0.3780331120775159,9.876713206683453,-46.38742656595713,-15.564202334630352,5.249103532463569,0,0,0,0,97246.7421875,34.99943542480469,
1,3,0.646,0.6603616388189518,-0.6077241168841078,10.278672465094989,-48.950942244602125,-15.808346684977494,4.943923094529641,0,0,0,0,97246.7421875,34.99943542480469,
1,3,0.647,0.6699320973525598,-0.6412207217517358,11.173510337987336,-48.828870069428554,-16.540779736018923,5.615320057984284,0,0,0,0,97246.7421875,34.99943542480469,
1,3,0.649,0.5646570534828718,-0.6890730144197758,10.025055313954377,-46.08224612802319,-15.869382772564279,6.9581139848935685,0,0,0,0,97228.0703125,34.99943542480469,
1,3,0.65,0.43545586327916386,-0.8756969558251317,9.345552758068209,-45.41084916456855,-16.662851911192494,7.995727473868925,0,0,0,0,97228.0703125,34.99943542480469,
1,3,0.652,0.47373769741359584,-0.9714015411612117,10.36480659189746,-46.5094987411307,-17.151140611886778,9.21644922560464,0,0,0,0,97228.0703125,34.99943542480469,
1,3,0.653,0.7321400778210118,-0.9714015411612117,10.240390630960556,-49.500267032883194,-17.273212787060352,10.742351415274282,0,0,0,0,97228.0703125,34.99943542480469,
1,3,0.655,0.8709117265583277,-0.9857572289616237,9.929350728618296,-49.92751964599069,-16.96803234912642,12.02410925459678,0,0,0,0,97234.7890625,35.00872802734375,
1,3,0.656,1.0336095216296637,-1.0240390630960556,9.790579079880981,-45.777065690089266,-17.273212787060352,13.30586709391928,0,0,0,0,97234.7890625,35.00872802734375,
1,3,0.658,1.1771663996337836,-0.8661264972915237,9.857572289616236,-42.29800869764248,-16.540779736018923,13.977264057373922,0,0,0,0,97234.7890625,35.00872802734375,
1,3,0.659,1.2489448386358435,-0.8613412680247197,10.0537666895552,-39.79552910658427,-15.747310597390708,13.30586709391928,0,0,0,0,97235.078125,34.99943542480469,
1,3,0.66,1.3350789654383155,-0.7225696192874037,9.56088807507439,-39.49034866865034,-14.465552758068208,12.939650568398566,0,0,0,0,97235.078125,34.99943542480469,
1,3,0.662,1.4259983215075915,-0.7752071412222478,9.88628366521706,-37.65926604104677,-13.30586709391928,12.390325780117495,0,0,0,0,97235.078125,34.99943542480469,
1,3,0.663,1.4403540093080036,-0.8852674143587397,9.675733577477684,-33.87502861066606,-12.207217517357138,11.779964904249638,0,0,0,0,97235.078125,34.99943542480469,
1,3,0.665,1.2585152971694515,-0.9809719996948196,9.718800640878921,-27.89349202716106,-10.009918364232853,10.925459678034638,0,0,0,0,97236.375,34.994789123535156,
1,3,0.666,1.0001129167620357,-0.7560662241550318,9.541747158007173,-23.987182421606775,-8.545052262149996,10.19302662699321,0,0,0,0,97236.375,34.994789123535156,
1,3,0.668,1.0048981460288398,-0.7225696192874037,9.943706416418708,-19.165331502250705,-7.568474860761426,10.131990539406425,0,0,0,0,97236.375,34.994789123535156,
1,3,0.669,0.8230594338902877,-0.6795025558861678,9.412545967803466,-13.061722743572139,-5.432211795223926,9.521629663538567,0,0,0,0,97234.046875,34.994789123535156,
1,3,0.671,0.6986434729533838,-0.6795025558861678,9.790579079880981,-9.155413138017854,-4.7608148317692836,9.21644922560464,0,0,0,0,97234.046875,34.994789123535156,
1,3,0.672,0.7464957656214237,-0.6603616388189518,9.603955138475625,-5.3101396200503554,-3.2349126420996415,9.76577401388571,0,0,0,0,97234.046875,34.994789123535156,
1,3,0.673,0.7129991607537958,-0.6172945754177158,9.60874036774243,0.6103608758678569,-1.8921187151903565,9.948882276646067,0,0,0,0,97231.7109375,34.994789123535156,
1,3,0.675,0.8804821850919357,-0.7417105363546197,10.048981460288397,3.11284046692607,-0.24414435034714277,10.498207064927138,0,0,0,0,97231.7109375,34.994789123535156,
1,3,0.676,0.9187640192263677,-0.9235492484931717,9.546532387273977,6.103608758678569,0.06103608758678569,10.131990539406425,0,0,0,0,97231.7109375,34.994789123535156,
1,3,0.678,0.8709117265583277,-1.0288242923628597,9.197210650797285,10.864423590447853,2.136263065537499,11.230640115968567,0,0,0,0,97231.7109375,34.994789123535156,
1,3,0.679,1.0240390630960556,-1.0048981460288398,9.64702220187686,14.343480582894637,3.0518043793392846,12.45136186770428,0,0,0,0,97237.40625,34.99943542480469,
1,3,0.681,1.0766765850308997,-1.0383947508964677,9.335982299534601,19.83672846570535,4.39459830624857,12.512397955291066,0,0,0,0,97237.40625,34.99943542480469,
1,3,0.682,1.2202334630350196,-0.8565560387579157,9.962847333485925,25.452048523689633,5.676356145571069,12.939650568398566,0,0,0,0,97237.40625,34.99943542480469,
1,3,0.684,1.3159380483710996,-0.7225696192874037,8.398077363241017,29.053177691309987,7.08018616006714,13.30586709391928,0,0,0,0,97230.6796875,34.990142822265625,
1,3,0.685,1.2680857557030596,-0.5885831998168918,8.948378728923476,31.921873807888915,7.141222247653926,12.87861448081178,0,0,0,0,97230.6796875,34.990142822265625,
1,3,0.686,1.4020721751735716,-0.6603616388189518,9.374264133669033,34.91264209964142,10.009918364232853,11.169604028381782,0,0,0,0,97230.6796875,34.990142822265625,
1,3,0.688,1.4259983215075915,-0.7273548485542077,9.316841382467384,37.5371938658732,10.742351415274282,9.948882276646067,0,0,0,0,97230.6796875,34.990142822265625,
1,3,0.689,1.3590051117723356,-1.0671061264972916,9.469968719005113,42.236972610055695,12.87861448081178,7.141222247653926,0,0,0,0,97235.078125,34.99943542480469,
1,3,0.691,1.4355687800411996,-1.1484550240329596,9.058439002059968,45.654993514915695,13.427939269092851,5.554283970397498,0,0,0,0,97235.078125,34.99943542480469,
1,3,0.692,1.5934813458457315,-0.9809719996948196,9.173284504463265,49.31715877012284,15.014877546349279,4.333562218661784,0,0,0,0,97235.078125,34.99943542480469,
1,3,0.694,1.6987563897154194,-0.8182742046234838,9.532176699473565,54.26108186465248,16.60181582360571,2.2583352407110704,0,0,0,0,97238.421875,35.00408172607422,
1,3,0.695,1.5982665751125356,-0.7656366826886397,9.345552758068209,57.007705806057835,18.43289845120928,1.586938277256428,0,0,0,0,97238.421875,35.00408172607422,
1,3,0.697,1.4307835507743956,-0.7704219119554437,9.197210650797285,60.48676279850462,19.28740367742428,1.2817578393224995,0,0,0,0,97238.421875,35.00408172607422,
1,3,0.698,1.2202334630350196,-0.8087037460898757,9.484324406805525,66.28519111924926,21.057450217441062,0.7324330510414283,0,0,0,0,97238.421875,35.00408172607422,
1,3,0.699,1.0336095216296637,-0.8182742046234838,9.852787060349433,70.3746089875639,21.66781109330892,0.6713969634546426,0,0,0,0,97235.078125,34.99943542480469,
1,3,0.701,0.9618310826276036,-0.8278446631570917,9.474753948271918,72.81605249103532,23.010605020218204,0.8545052262149997,0,0,0,0,97235.078125,34.99943542480469,
1,3,0.702,0.8852674143587397,-0.49766384374761585,10.4126588845655,75.5016403448539,23.987182421606775,1.0986495765621425,0,0,0,0,97235.078125,34.99943542480469,
1,3,0.704,0.7512809948882277,-0.6555764095521478,9.737941557946137,72.87708857862211,23.80407415884642,2.136263065537499,0,0,0,0,97238.421875,35.00408172607422,
1,3,0.705,0.6316502632181278,-0.2823285267414359,10.422229343099108,65.36964980544748,21.54573891813535,2.4414435034714277,0,0,0,0,97238.421875,35.00408172607422,
1,3,0.707,0.7464957656214237,0.5550865949492638,12.436810864423592,48.09643701838712,24.04821850919356,2.4414435034714277,0,0,0,0,97238.421875,35.00408172607422,
1,3,0.708,0.7464957656214237,0.17226825360494394,9.07279468986038,43.152513923857484,20.569161516746778,3.2349126420996415,0,0,0,0,97238.421875,35.00408172607422,
1,3,0.71,0.21055008773937592,-0.3253955901426719,10.144686045624477,40.9552147707332,18.55497062638285,3.9673456931410698,0,0,0,0,97236.0859375,35.00408172607422,
1,3,0.711,-0.08613412680247197,-0.21533531700617992,11.4893354695964,33.081559472037846,14.343480582894637,6.103608758678569,0,0,0,0,97236.0859375,35.00408172607422,
1,3,0.713,-0.19619439993896393,0.13398641947051196,10.173397421225301,27.710383764400703,12.817578393224995,6.897077897306783,0,0,0,0,97236.0859375,35.00408172607422,
1,3,0.714,-0.11484550240329597,0.08134889753566797,10.876826123445488,24.170290684367135,10.498207064927138,8.422980086976425,0,0,0,0,97234.046875,34.994789123535156,
1,3,0.715,-0.06699320973525598,0.15312733653772795,10.216464484626536,17.334248874647137,7.9346913862821395,10.009918364232853,0,0,0,0,97234.046875,34.994789123535156,
1,3,0.717,-0.3253955901426719,0.11006027313649196,11.388845654993515,12.512397955291066,6.2867170214389265,11.108567940794996,0,0,0,0,97234.046875,34.994789123535156,
1,3,0.718,-0.49766384374761585,0.22969100480659194,10.857685206378273,8.91126878767071,4.150453955901427,12.390325780117495,0,0,0,0,97234.046875,34.994789123535156,
1,3,0.72,-0.43067063401235983,0.057422751201647984,10.86725566491188,7.141222247653926,3.11284046692607,13.244831006332495,0,0,0,0,97236.375,34.994789123535156,
1,3,0.721,-0.35410696574349587,-0.03828183413443199,10.221249713893341,5.065995269703213,1.5259021896696423,14.038300144960708,0,0,0,0,97236.375,34.994789123535156,
1,3,0.723,-0.12441596093690396,0.19140917067215993,10.551430533302817,-1.0376134889753568,-0.5493247882810712,14.831769283588923,0,0,0,0,97236.375,34.994789123535156,
1,3,0.724,0.06699320973525598,0.10527504386968796,10.398303196765088,-3.356984817273213,-1.770046540016785,15.136949721522852,0,0,0,0,97232.75,34.99943542480469,
1,3,0.726,0.6364354924849318,0.24883192187380793,11.451053635461967,-4.2114900434882125,-2.6855878538185705,15.747310597390708,0,0,0,0,97232.75,34.99943542480469,
1,3,0.727,1.0336095216296637,-0.02392614633401999,10.666276035706112,-12.512397955291066,-6.2867170214389265,20.569161516746778,0,0,0,0,97232.75,34.99943542480469,
1,3,0.728,1.6844007019150073,-0.5646570534828718,11.221362630655376,-20.752269779507134,-9.948882276646067,27.89349202716106,0,0,0,0,97232.75,34.99943542480469,
1,3,0.73,1.7226825360494393,-1.5217029068436714,10.967745479514765,-34.302281223773555,-15.625238422217137,41.19935912108034,0,0,0,0,97237.40625,34.99943542480469,
1,3,0.731,0.7177843900205998,-2.4787487602044713,8.967519645990693,-47.05882352941177,-23.437857633325706,69.33699549858855,0,0,0,0,97237.40625,34.99943542480469,
1,3,0.733,-0.11006027313649196,-2.3830441748683913,10.336095216296636,-40.34485389486534,-21.728847180895706,90.8216983291371,0,0,0,0,97237.40625,34.99943542480469,
1,3,0.734,-0.5646570534828718,-1.8662394140535594,9.206781109330892,-23.193713282978564,-16.540779736018923,109.43770504310675,0,0,0,0,97232.75,34.99943542480469,
1,3,0.736,-0.21055008773937592,-2.201205462729839,6.40263675898375,3.2959487296864274,-5.8594644083314265,130.37308308537425,0,0,0,0,97232.75,34.99943542480469,
1,3,0.737,0.004785229266803998,-2.268198672465095,9.331197070267796,18.066681925688563,0.12207217517357138,138.73502708476389,0,0,0,0,97232.75,34.99943542480469,
1,3,0.739,0.19140917067215993,-2.2203463797970553,11.422342259861145,22.52231631952392,4.089417868314642,147.1580071717403,0,0,0,0,97232.75,34.99943542480469,
1,3,0.74,1.2106630045014115,-2.182064545662623,8.355010299839781,7.446402685587854,-2.0141908903639276,158.2665751125353,0,0,0,0,97233.75,35.00408172607422,
1,3,0.742,1.6891859311818114,-1.5025619897764555,11.168725108720531,-0.12207217517357138,-8.300907911802854,163.57671473258566,0,0,0,0,97233.75,35.00408172607422,
1,3,0.743,1.5934813458457315,-0.8039185168230717,12.216690318150608,-8.05676356145571,-11.108567940794996,168.70374608987564,0,0,0,0,97233.75,35.00408172607422,
1,3,0.744,1.1436697947661556,-0.06220798046845198,10.675846494239721,-15.014877546349279,-12.390325780117495,176.1501487754635,0,0,0,0,97234.046875,34.994789123535156,
1,3,0.746,-0.14834210727092395,-0.19619439993896393,9.43168688487068,-15.136949721522852,-15.564202334630352,182.19272144655528,0,0,0,0,97234.046875,34.994789123535156,
1,3,0.747,-4.086585793850615,6.120308232242314,12.412884718089572,-10.559243152513924,-15.197985809109637,193.1181811245899,0,0,0,0,97234.046875,34.994789123535156,
1,3,0.749,-9.24984817273213,4.58424963759823,6.948152895399406,5.127031357289998,-14.648661020828566,202.39566643778136,0,0,0,0,97234.046875,34.994789123535156,
1,3,0.75,-11.661603723201344,1.0718913557640957,8.14924544136721,-3.356984817273213,-7.690547035934997,212.4055848020142,0,0,0,0,97238.7109375,34.994789123535156,
1,3,0.752,-6.1298786907759215,-4.263639276722363,12.85312581063554,-71.6563668268864,-4.150453955901427,221.8051422903792,0,0,0,0,97238.7109375,34.994789123535156,
1,3,0.753,-0.8565560387579157,-4.373699549858855,13.59483634699016,-108.27801937895781,-8.05676356145571,219.7299153124285,0,0,0,0,97238.7109375,34.994789123535156,
1,3,0.755,5.225470359349966,-2.3830441748683913,9.757082475013354,-96.00976577401389,-15.197985809109637,213.6263065537499,0,0,0,0,97240.7578125,35.00408172607422,
1,3,0.756,7.570232700083926,-0.03828183413443199,10.718913557640956,-43.88494697489891,-22.583352407110706,204.776073853666,0,0,0,0,97240.7578125,35.00408172607422,
1,3,0.757,5.66092622262913,0.8565560387579157,12.743065537499048,-27.22209506370642,-28.74799725337606,201.358052948806,0,0,0,0,97240.7578125,35.00408172607422,
1,3,0.759,1.3159380483710996,1.9810849164568554,10.489222552834365,-30.395971618219274,-27.46623941405356,200.4425116350042,0,0,0,0,97240.7578125,35.00408172607422,
1,3,0.76,-3.9621698329137107,5.550865949492638,5.4360204470893425,-35.64507515068284,-21.179522392614633,203.921568627451,0,0,0,0,97235.078125,34.99943542480469,
1,3,0.762,-4.402410925459678,6.3452140077821015,8.182742046234837,-49.43923094529641,-16.29663538567178,207.40062561989777,0,0,0,0,97235.078125,34.99943542480469,
1,3,0.763,-5.412094300755323,4.689524681467918,8.230594338902877,-71.71740291447318,-10.986495765621424,208.19409475852598,0,0,0,0,97235.078125,34.99943542480469,
1,3,0.765,-3.0434058136873428,1.9810849164568554,7.646796368352789,-108.15594720378424,-2.6245517662317845,210.45242999923707,0,0,0,0,97235.078125,34.99943542480469,
1,3,0.766,0.06220798046845198,0.5120195315480278,7.498454261081865,-119.14244296940566,-0.24414435034714277,210.57450217441064,0,0,0,0,97235.078125,34.99943542480469,
1,3,0.768,3.096043335622187,-0.5455161364156558,10.336095216296636,-120.85145342183567,0.42725261310749985,205.81368734264134,0,0,0,0,97235.078125,34.99943542480469,
1,3,0.769,6.110737773708706,-2.985983062485695,13.2837964446479,-110.29221026932174,-0.36621652552071415,196.231021591516,0,0,0,0,97235.078125,34.99943542480469,
1,3,0.771,6.053315022507058,-4.402410925459678,7.876487373159382,-95.76562142366674,-4.2114900434882125,189.94430457007707,0,0,0,0,97231.7109375,34.994789123535156,
1,3,0.772,6.321287861448082,-4.325847257190815,7.905198748760205,-72.38879987792782,-13.977264057373922,186.16006713969637,0,0,0,0,97231.7109375,34.994789123535156,
1,3,0.773,6.6275425345235375,-3.474076447699703,12.269327840085452,-44.67841611352713,-17.334248874647137,181.39925230792707,0,0,0,0,97231.7109375,34.994789123535156,
1,3,0.775,5.077128252079042,-3.186962691691463,6.684965285725186,-28.01556420233463,-24.78065156023499,181.15510795757993,0,0,0,0,97235.078125,34.99943542480469,
1,3,0.776,5.321174944686046,-0.7417105363546197,20.748754100862136,-10.620279240100711,-26.977950713359274,177.9201953154803,0,0,0,0,97235.078125,34.99943542480469,
1,3,0.778,3.9143175402456705,-1.1293141069657435,14.920344853894868,-9.094377050431067,-11.963073167009995,175.35667963683528,0,0,0,0,97235.078125,34.99943542480469,
1,3,0.779,4.957497520408943,-1.5169176775768676,4.660813305867094,0.18310826276035708,-16.479743648432137,172.18280308232244,0,0,0,0,97235.078125,34.99943542480469,
1,3,0.781,3.3257343404287787,-1.3111528191042956,9.95806210421912,8.972304875257496,-7.629510948348211,171.450370031281,0,0,0,0,97235.078125,34.99943542480469,
1,3,0.782,4.277994964522774,-1.2633005264362556,8.565560387579158,13.73311970702678,-12.573434042877853,170.2296482795453,0,0,0,0,97235.078125,34.99943542480469,
1,3,0.784,3.6607003891050587,-1.2633005264362556,10.642349889372092,14.16037232013428,-10.254062714579996,172.12176699473565,0,0,0,0,97235.078125,34.99943542480469,
1,3,0.785,3.4549355306324867,-1.4594949263752195,10.637564660105289,9.033340962844282,-10.681315327687496,170.2906843671321,0,0,0,0,97238.421875,35.00408172607422,
1,3,0.786,2.6079499504081793,-1.4882063019760434,9.967632562752728,6.591897459372855,-12.268253604943924,170.6569008926528,0,0,0,0,97238.421875,35.00408172607422,
1,3,0.788,3.569781033035783,-0.7321400778210118,10.503578240634777,4.577706569008927,-13.977264057373922,168.27649347676814,0,0,0,0,97238.421875,35.00408172607422,
1,3,0.789,3.210888838025483,-0.7991332875562678,11.015597772182804,-7.5074387731746395,-13.30586709391928,171.0231174181735,0,0,0,0,97238.421875,35.00408172607422,
1,3,0.791,3.258741130693523,-0.9235492484931717,10.221249713893341,-15.686274509803923,-14.58762493324178,170.04654001678495,0,0,0,0,97238.7109375,34.994789123535156,
1,3,0.792,3.096043335622187,-0.6268650339513238,10.943819333180745,-20.508125429159993,-15.136949721522852,170.6569008926528,0,0,0,0,97238.7109375,34.994789123535156,
1,3,0.794,3.330519569695583,-0.5359456778820478,10.828973830777448,-28.686961165789274,-19.043259327077134,171.14518959334708,0,0,0,0,97238.7109375,34.994789123535156,
1,3,0.795,3.072117189288167,-1.1006027313649196,11.39363088426032,-33.630884260318915,-17.70046540016785,173.6476691844053,0,0,0,0,97238.421875,35.00408172607422,
1,3,0.797,3.167821774624247,-1.1867368581673916,10.661490806439309,-37.90341039139391,-19.226367589837494,175.41771572442207,0,0,0,0,97238.421875,35.00408172607422,
1,3,0.798,3.2491706721599147,-1.3637903410391394,11.125658045319296,-41.016250858319985,-18.493934538796065,179.2019531548028,0,0,0,0,97238.421875,35.00408172607422,
1,3,0.799,3.5506401159685668,-1.5264881361104754,10.096833752956437,-41.809719996948196,-19.40947585259785,181.58236057068743,0,0,0,0,97235.078125,34.99943542480469,
1,3,0.801,3.579351491569391,-2.603164721141375,9.752297245746549,-40.9552147707332,-19.226367589837494,185.976958876936,0,0,0,0,97235.078125,34.99943542480469,
1,3,0.802,3.828183413443199,-2.493104448004883,9.852787060349433,-39.185168230716414,-19.40947585259785,186.77042801556422,0,0,0,0,97235.078125,34.99943542480469,
1,3,0.804,3.9430289158464946,-2.890278477149615,10.269102006561381,-37.5371938658732,-17.273212787060352,188.9677271686885,0,0,0,0,97235.078125,34.99943542480469,
1,3,0.805,3.9621698329137107,-3.493217364766919,9.709230182345312,-34.424353398947126,-18.98222323949035,193.7285420004578,0,0,0,0,97231.7109375,34.994789123535156,
1,3,0.807,4.077015335317006,-4.05787441824979,9.991558709086748,-30.33493553063249,-18.371862363622494,195.49858854047457,0,0,0,0,97231.7109375,34.994789123535156,
1,3,0.808,4.29713588158999,-4.225357442587931,9.876713206683453,-24.04821850919356,-18.98222323949035,197.940032043946,0,0,0,0,97231.7109375,34.994789123535156,
1,3,0.81,4.383270008392462,-4.239713130388343,10.06333714808881,-14.953841458762493,-20.141908903639276,200.4425116350042,0,0,0,0,97236.0859375,35.00408172607422,
1,3,0.811,4.407196154726482,-4.416766613260091,9.766652933546961,-8.667124437323569,-20.630197604333564,201.29701686121922,0,0,0,0,97236.0859375,35.00408172607422,
1,3,0.813,4.27320973525597,-4.455048447394523,10.020270084687573,-0.42725261310749985,-22.09506370641642,202.57877470054171,0,0,0,0,97236.0859375,35.00408172607422,
1,3,0.814,3.765975432974747,-4.373699549858855,9.943706416418708,11.108567940794996,-24.292362859540706,202.02944991226065,0,0,0,0,97236.0859375,35.00408172607422,
1,3,0.815,3.622418554970627,-4.426337071793698,10.07769283588922,19.714656290531778,-26.062409399557488,202.57877470054171,0,0,0,0,97236.0859375,35.00408172607422,
1,3,0.817,3.167821774624247,-4.258854047455559,10.226034943160144,27.527275501640347,-27.89349202716106,202.39566643778136,0,0,0,0,97236.0859375,35.00408172607422,
1,3,0.818,2.679728389410239,-3.665485618371863,10.331309987029833,37.476157778286414,-31.18944075684749,200.68665598535134,0,0,0,0,97236.0859375,35.00408172607422,
1,3,0.82,2.2107759212634472,-3.364016174563211,10.848114747844665,43.5187304493782,-33.081559472037846,199.77111467154955,0,0,0,0,97237.125,35.00872802734375,
1,3,0.821,1.7753200579842834,-2.9237750820172432,10.494007782101168,48.70679789425498,-36.133363851377126,197.8789959563592,0,0,0,0,97237.125,35.00872802734375,
1,3,0.823,1.0958175020981156,-2.225131609063859,10.857685206378273,56.58045319295034,-40.100709544518196,194.03372243839172,0,0,0,0,97237.125,35.00872802734375,
1,3,0.824,0.8326298924238957,-1.7896757457846955,10.98688639658198,61.15815976195926,-43.0914778362707,191.34813458457313,0,0,0,0,97237.125,35.00872802734375,
1,3,0.826,0.40674448767833987,-1.2824414435034717,11.403201342793928,63.41649500267033,-45.89913786526284,188.60151064316779,0,0,0,0,97231.7109375,34.994789123535156,
1,3,0.827,0.07177843900205998,-0.7369253070878158,11.833871976806288,66.5293354695964,-50.23270008392462,181.82650492103457,0,0,0,0,97231.7109375,34.994789123535156,
1,3,0.828,-0.2918989852750439,-0.3206103608758679,12.412884718089572,69.21492332341498,-52.918287937743195,177.4929427023728,0,0,0,0,97231.7109375,34.994789123535156,
1,3,0.83,-0.6795025558861678,0.2918989852750439,12.90097810330358,70.74082551308462,-56.94666971847105,171.57244220645458,0,0,0,0,97235.078125,34.99943542480469,
1,3,0.831,-1.2680857557030596,0.7417105363546197,13.934587624933243,70.67978942549783,-61.95162890058747,162.1118486305028,0,0,0,0,97235.078125,34.99943542480469,
1,3,0.833,-1.8614541847867554,1.0048981460288398,13.848453498130771,66.65140764476998,-67.56694895857176,155.58098725871673,0,0,0,0,97235.078125,34.99943542480469,
1,3,0.834,-2.737151140611887,2.1677088578622112,14.62366063935302,58.716716258487835,-73.91470206759747,144.5334554055085,0,0,0,0,97235.078125,34.99943542480469,
1,3,0.836,-3.1726070038910508,2.756292057679103,14.939485770962083,53.95590142671855,-77.82101167315176,137.02601663233386,0,0,0,0,97232.75,34.99943542480469,
1,3,0.837,-3.6176333257038227,2.990768291752499,15.437149614709698,47.85229266803998,-82.45975432974747,129.51857785915922,0,0,0,0,97232.75,34.99943542480469,
1,3,0.839,-4.3354177157244225,3.603277637903411,16.317631799801635,40.65003433279927,-88.01403830014496,117.00617990386817,0,0,0,0,97232.75,34.99943542480469,
1,3,0.84,-4.804370183871215,3.9717402914473188,16.59996032654307,36.133363851377126,-91.49309529259175,107.17936980239567,0,0,0,0,97238.7109375,34.994789123535156,
1,3,0.841,-5.201544213015946,4.455048447394523,17.073698023956666,29.907682917524987,-94.78904402227818,97.35255970092318,0,0,0,0,97238.7109375,34.994789123535156,
1,3,0.843,-5.44559090562295,4.909645227740902,17.72448920424201,18.67704280155642,-99.67193102922103,81.84939345387961,0,0,0,0,97238.7109375,34.994789123535156,
1,3,0.844,-5.603503471427482,5.153691920347907,18.05945525291829,11.352712291142138,-102.60166323338674,70.49668116273747,0,0,0,0,97238.7109375,34.994789123535156,
1,3,0.846,-5.737489890897994,5.369027237354087,18.092951857785916,4.638742656595713,-104.73792629892425,58.22842755779355,0,0,0,0,97237.40625,34.99943542480469,
1,3,0.847,-5.39773861295491,5.622644388494698,19.01650110627909,-6.713969634546426,-105.95864805065996,40.71107042038606,0,0,0,0,97237.40625,34.99943542480469,
1,3,0.849,-5.450376134889754,5.546080720225834,19.322755779354544,-14.709697108415352,-107.66765850308995,29.358358129243918,0,0,0,0,97237.40625,34.99943542480469,
1,3,0.85,-5.641785305561914,5.388168154421302,19.51895017929351,-23.80407415884642,-107.24040588998245,17.639429312581065,0,0,0,0,97234.046875,34.994789123535156,
1,3,0.852,-5.99589227130541,5.067557793545435,20.217593652246894,-36.31647211413748,-104.37170977340352,2.136263065537499,0,0,0,0,97234.046875,34.994789123535156,
1,3,0.853,-6.120308232242314,4.746947432669566,20.112318608377205,-43.76287479972534,-103.45616845960174,-8.850232700083925,0,0,0,0,97234.046875,34.994789123535156,
1,3,0.855,-6.13944914930953,4.51247119859617,20.303727779049364,-51.69756618600748,-100.09918364232853,-18.860151064316778,0,0,0,0,97234.046875,34.994789123535156,
1,3,0.856,-5.713563744563974,3.9860959792477306,20.542989242389567,-61.89059281300069,-95.15526054779889,-32.532234683756776,0,0,0,0,97230.40625,34.99943542480469,
1,3,0.857,-5.383382925154498,3.646344701304647,20.28458686198215,-68.05523765926604,-90.57755397878996,-40.83314259555963,0,0,0,0,97230.40625,34.99943542480469,
1,3,0.859,-4.708665598535134,3.115184252689403,20.447284657053483,-77.57686732280462,-81.42214084077212,-52.491035324635696,0,0,0,0,97230.40625,34.99943542480469,
1,3,0.86,-4.277994964522774,2.627090867475395,20.471210803387503,-84.71808957045853,-75.25749599450675,-59.08293278400855,0,0,0,0,97230.40625,34.99943542480469,
1,3,0.862,-3.698982223239491,2.2490577553978794,20.820532539864196,-91.06584267948425,-68.48249027237354,-64.94239719233997,0,0,0,0,97230.40625,34.99943542480469,
1,3,0.863,-2.957271686884871,1.7992462043183033,20.490351720454722,-102.11337453269246,-57.49599450675212,-72.38879987792782,0,0,0,0,97230.40625,34.99943542480469,
1,3,0.865,-2.2490577553978794,1.6126222629129474,20.499922178988328,-108.64423590447853,-49.56130312046998,-76.41718165865568,0,0,0,0,97230.40625,34.99943542480469,
1,3,0.866,-1.6269779507133595,1.3207232776379036,20.600411993591212,-113.8933394369421,-40.65003433279927,-80.20141908903639,0,0,0,0,97237.6796875,34.990142822265625,
1,3,0.868,-0.7704219119554437,1.0192538338292516,20.7056870374609,-121.95010299839781,-27.405203326466776,-85.69466697184711,0,0,0,0,97237.6796875,34.990142822265625,
1,3,0.869,-0.019140917067215994,0.8996231021591516,20.499922178988328,-127.74853131914244,-16.662851911192494,-87.70885786221103,0,0,0,0,97237.6796875,34.990142822265625,
1,3,0.871,0.38281834134431986,0.6268650339513238,20.614767681391626,-133.73006790264745,-3.9063096055542843,-88.92957961394676,0,0,0,0,97236.0859375,35.00408172607422,
1,3,0.872,1.0910322728313115,-0.004785229266803998,20.571700617990388,-141.96993972686352,17.639429312581065,-89.72304875257497,0,0,0,0,97236.0859375,35.00408172607422,
1,3,0.873,1.3542198825055316,-0.2823285267414359,20.442499427786682,-145.57106889448386,32.71534294651713,-88.86854352635997,0,0,0,0,97236.0859375,35.00408172607422,
1,3,0.875,1.6891859311818114,-0.7082139314869917,20.351580071717404,-146.42557412069888,47.913328755626765,-87.76989394979782,0,0,0,0,97236.0859375,35.00408172607422,
1,3,0.876,1.9715144579232473,-1.2489448386358435,19.983117418173496,-142.70237277790494,72.20569161516747,-85.26741435873961,0,0,0,0,97238.7109375,34.994789123535156,
1,3,0.878,1.9858701457236594,-1.8614541847867554,19.28925917448692,-138.97917143511103,88.01403830014496,-83.25322346837568,0,0,0,0,97238.7109375,34.994789123535156,
1,3,0.879,1.9762996871900513,-2.0576485847257193,18.80116578927291,-132.50934615091174,104.0665293354696,-80.20141908903639,0,0,0,0,97238.7109375,34.994789123535156,
1,3,0.881,1.7896757457846955,-2.866352330815595,17.982891584649426,-121.88906691081102,127.38231479362173,-74.09781033035783,0,0,0,0,97228.0703125,34.99943542480469,
1,3,0.882,1.8279575799191274,-3.139110399023423,17.67663691157397,-112.91676203555353,142.70237277790494,-69.27595941100176,0,0,0,0,97228.0703125,34.99943542480469,
1,3,0.884,1.8279575799191274,-3.493217364766919,17.17418783855955,-99.24467841611353,164.79743648432137,-60.059510185397116,0,0,0,0,97228.0703125,34.99943542480469,
1,3,0.885,2.1724940871290155,-3.689411764705883,16.791369497215232,-88.99061570153354,178.65262836652172,-53.40657663843748,0,0,0,0,97228.0703125,34.99943542480469,
1,3,0.886,2.507460135805295,-3.8808209353780425,16.690879682612348,-79.46898603799497,191.40917067215992,-46.32639047837034,0,0,0,0,97234.046875,34.994789123535156,
1,3,0.888,3.000338750286107,-4.105726710917831,16.131007858396277,-66.16311894407569,208.9265278095674,-34.546425574120704,0,0,0,0,97234.046875,34.994789123535156,
1,3,0.889,3.5745662623025867,-4.234927901121538,16.26499427786679,-58.41153582055391,221.43892576485848,-26.794842450598917,0,0,0,0,97234.046875,34.994789123535156,
1,3,0.891,4.144008545052262,-4.230142671854734,15.685981536583506,-51.51445792324712,230.96055542839704,-18.005645838101778,0,0,0,0,97231.421875,35.00408172607422,
1,3,0.892,5.172832837415123,-4.110511940184635,15.796041809719998,-44.25116350041962,246.0975051499199,-5.004959182116426,0,0,0,0,97231.421875,35.00408172607422,
1,3,0.894,5.747060349431602,-3.9956664377813387,15.346230258640423,-40.28381780727855,254.1542687113756,3.8452735179674984,0,0,0,0,97231.421875,35.00408172607422,
1,3,0.895,6.311717402914474,-3.775545891508355,15.437149614709698,-38.269626916914625,263.37071793698027,12.268253604943924,0,0,0,0,97231.421875,35.00408172607422,
1,3,0.897,7.149132524605173,-3.6846265354390786,15.011264209964143,-35.217822537575344,274.4792858777752,22.94956893263142,0,0,0,0,97237.40625,34.99943542480469,
1,3,0.898,7.50323949034867,-3.5506401159685668,14.810284580758376,-33.99710078583963,282.0477607385367,29.968719005111772,0,0,0,0,97237.40625,34.99943542480469,
1,3,0.9,7.718574807354849,-3.483646906233311,14.422681010147251,-32.043945983062486,288.1513694972152,36.07232776379034,0,0,0,0,97237.40625,34.99943542480469,
1,3,0.901,7.866916914625773,-3.5841367208361947,14.006366063935303,-28.503852903028918,297.4288548104067,43.21355001144427,0,0,0,0,97240.7578125,35.00408172607422,
1,3,0.902,7.737715724422065,-3.4549355306324867,13.676185244525827,-26.062409399557488,302.98313878080415,45.777065690089266,0,0,0,0,97240.7578125,35.00408172607422,
1,3,0.904,7.55109178301671,-3.349660486762799,13.293366903181507,-22.461280231937135,308.4153505760281,48.34058136873427,0,0,0,0,97240.7578125,35.00408172607422,
1,3,0.905,6.847663080796521,-3.052976272220951,12.680857557030595,-16.84596017395285,314.3358510719463,50.11062790875105,0,0,0,0,97232.75,34.99943542480469,
1,3,0.907,6.239938963912414,-2.918989852750439,12.30282444495308,-13.488975356679637,317.87594415197987,50.29373617151141,0,0,0,0,97232.75,34.99943542480469,
1,3,0.908,5.402523842221714,-2.694084077210651,11.604180971999696,-7.751583123521782,321.4770733196002,49.13405050736248,0,0,0,0,97232.75,34.99943542480469,
1,3,0.91,4.660813305867094,-2.531386282139315,11.403201342793928,-3.2349126420996415,322.6977950713359,47.42504005493248,0,0,0,0,97232.75,34.99943542480469,
1,3,0.911,4.225357442587931,-2.354332799267567,10.881611352712293,0.48828870069428554,323.30815594720383,44.61738002594034,0,0,0,0,97238.7109375,34.994789123535156,
1,3,0.913,3.4788616769665066,-1.9715144579232473,10.479652094300757,7.019150072480354,322.08743419546806,39.61242084382391,0,0,0,0,97238.7109375,34.994789123535156,
1,3,0.914,3.119969481956207,-1.6939711604486154,9.996343938353553,10.986495765621424,320.43945983062486,35.217822537575344,0,0,0,0,97238.7109375,34.994789123535156,
1,3,0.915,2.856781872281987,-1.4307835507743956,9.761867704280156,14.526588845654993,318.5473411154345,30.823224231326773,0,0,0,0,97232.75,34.99943542480469,
1,3,0.917,2.579238574807355,-0.8996231021591516,9.594384679942017,18.738078889143207,313.35927367055774,23.132677195391775,0,0,0,0,97232.75,34.99943542480469,
1,3,0.918,2.397399862668803,-0.5646570534828718,9.43168688487068,20.996414129854276,309.8191805905242,17.639429312581065,0,0,0,0,97232.75,34.99943542480469,
1,3,0.92,2.3160509651331354,-0.2201205462729839,9.379049362935836,22.583352407110706,305.48561837186236,12.085145342183568,0,0,0,0,97232.75,34.99943542480469,
1,3,0.921,2.1437827115281913,0.15312733653772795,9.264203860532541,23.80407415884642,297.91714351110096,3.173876554512856,0,0,0,0,97236.375,34.994789123535156,
1,3,0.923,1.9906553749904634,0.30146944380865187,9.015371938658733,24.35339894712749,291.44731822690164,-3.2349126420996415,0,0,0,0,97236.375,34.994789123535156,
1,3,0.924,1.9762996871900513,0.5837979705500878,9.07279468986038,24.292362859540706,285.2826733806363,-9.33852140077821,0,0,0,0,97236.375,34.994789123535156,
1,3,0.926,1.5886961165789275,0.7799923704890518,9.02494239719234,24.23132677195392,274.9675745784695,-18.31082627603571,0,0,0,0,97235.3515625,34.990142822265625,
1,3,0.927,1.3398641947051195,0.8517708094911117,9.07279468986038,23.25474937056535,267.3990997177081,-24.23132677195392,0,0,0,0,97235.3515625,34.990142822265625,
1,3,0.929,1.0336095216296637,0.9187640192263677,9.13021744106203,21.66781109330892,260.1968413824674,-30.090791180285347,0,0,0,0,97235.3515625,34.990142822265625,
1,3,0.93,0.7082139314869917,1.0001129167620357,9.135002670328833,19.653620202944992,249.21034561684598,-37.90341039139391,0,0,0,0,97235.3515625,34.990142822265625,
1,3,0.931,0.4593820096131839,1.0048981460288398,9.139787899595637,19.10429541466392,241.76394293125813,-42.481116960402844,0,0,0,0,97234.046875,34.994789123535156,
1,3,0.933,0.11484550240329597,0.9905424582284277,9.211566338597697,18.371862363622494,233.95132372014956,-46.204318303196764,0,0,0,0,97234.046875,34.994789123535156,
1,3,0.934,-0.3110399023422599,0.9714015411612117,9.292915236133364,17.761501487754636,223.39208056763562,-52.18585488670176,0,0,0,0,97234.046875,34.994789123535156,
1,3,0.936,-0.5311604486152438,0.9331197070267797,9.283344777599757,17.45632104982071,216.37293049515526,-54.81040665293355,0,0,0,0,97231.7109375,34.994789123535156,
1,3,0.937,-0.8756969558251317,0.9474753948271917,9.364693675135426,16.540779736018923,209.96414129854278,-58.106355382619974,0,0,0,0,97231.7109375,34.994789123535156,
1,3,0.939,-1.1628107118333717,1.1053879606317236,9.517821011673153,14.709697108415352,200.50354772259098,-60.975051499198905,0,0,0,0,97231.7109375,34.994789123535156,
1,3,0.94,-1.2680857557030596,1.1963073167009997,9.426901655603876,12.939650568398566,194.64408331425957,-63.111314564736404,0,0,0,0,97231.7109375,34.994789123535156,
1,3,0.942,-1.4116426337071795,1.3350789654383155,9.541747158007173,9.826810101472496,186.4652475776303,-65.3086137178607,0,0,0,0,97231.7109375,34.994789123535156,
1,3,0.943,-1.5264881361104754,1.4594949263752195,9.766652933546961,7.08018616006714,182.00961318379493,-66.77347981994355,0,0,0,0,97231.7109375,34.994789123535156,
1,3,0.944,-1.5839108873121235,1.6317631799801635,9.613525597009232,4.7608148317692836,177.0046540016785,-67.50591287098497,0,0,0,0,97231.7109375,34.994789123535156,
1,3,0.946,-1.5360585946440835,2.0337224383916994,9.843216601815824,-0.48828870069428554,171.75555046921494,-69.27595941100176,0,0,0,0,97232.75,34.99943542480469,
1,3,0.947,-1.5360585946440835,2.182064545662623,9.929350728618296,-4.638742656595713,169.06996261539635,-69.09285114824141,0,0,0,0,97232.75,34.99943542480469,
1,3,0.949,-1.5312733653772794,2.244272526131075,9.98198825055314,-9.948882276646067,166.68955519951172,-69.5201037613489,0,0,0,0,97232.75,34.99943542480469,
1,3,0.95,-1.4451392385748074,2.603164721141375,10.0537666895552,-19.83672846570535,164.37018387121387,-68.97077897306782,0,0,0,0,97232.75,34.99943542480469,
1,3,0.952,-1.3446494239719236,2.789788662546731,9.991558709086748,-26.550698100251775,163.33257038223852,-68.6655985351339,0,0,0,0,97228.0703125,34.99943542480469,
1,3,0.953,-1.4594949263752195,2.875922789349203,9.919780270084688,-34.48538948653391,162.78324559395745,-68.84870679789425,0,0,0,0,97228.0703125,34.99943542480469,
1,3,0.955,-1.5791256580453195,3.201318379491875,9.785793850614176,-46.570534828717484,163.14946211947816,-68.42145418478675,0,0,0,0,97228.0703125,34.99943542480469,
1,3,0.956,-1.3829312581063555,3.373586633096819,9.718800640878921,-55.35973144121462,164.37018387121387,-68.84870679789425,0,0,0,0,97229.375,34.994789123535156,
1,3,0.957,-1.4594949263752195,3.392727550164035,9.733156328679332,-64.14892805371176,165.8960860608835,-68.84870679789425,0,0,0,0,97229.375,34.994789123535156,
1,3,0.959,-1.5504142824444955,3.517143511100939,9.833646143282216,-78.85862516212711,169.2530708781567,-69.45906767376212,0,0,0,0,97229.375,34.994789123535156,
1,3,0.96,-1.4882063019760434,3.502787823300527,9.65659266041047,-89.84512092774854,171.8776226443885,-70.49668116273747,0,0,0,0,97229.375,34.994789123535156,
1,3,0.962,-1.4594949263752195,3.5219287403677426,9.733156328679332,-101.19783321889068,175.90600442511635,-70.55771725032426,0,0,0,0,97230.6796875,34.990142822265625,
1,3,0.963,-1.4977767605096515,3.5219287403677426,9.728371099412529,-117.86068513008317,181.2771801327535,-71.10704203860533,0,0,0,0,97230.6796875,34.990142822265625,
1,3,0.965,-1.4882063019760434,3.603277637903411,9.953276874952317,-129.51857785915922,186.77042801556422,-71.59533073929961,0,0,0,0,97230.6796875,34.990142822265625,
1,3,0.966,-1.6126222629129474,3.5745662623025867,9.91020981155108,-141.6037232013428,190.92088197146563,-72.0836194399939,0,0,0,0,97231.7109375,34.994789123535156,
1,3,0.968,-1.7418234531166554,3.5649958037689786,10.197323567559321,-158.38864728770886,199.5269703212024,-72.57190814068818,0,0,0,0,97231.7109375,34.994789123535156,
1,3,0.969,-1.9140917067215995,3.5410696574349587,10.221249713893341,-169.74135957885102,205.32539864194706,-72.9381246662089,0,0,0,0,97231.7109375,34.994789123535156,
1,3,0.97,-2.0576485847257193,3.517143511100939,10.297813382162204,-181.46028839551386,211.612115663386,-73.18226901655605,0,0,0,0,97231.7109375,34.994789123535156,
1,3,0.972,-2.397399862668803,3.4788616769665066,10.407873655298696,-198.794537270161,222.11032272831312,-73.48744945448998,0,0,0,0,97234.046875,34.994789123535156,
1,3,0.973,-2.483533989471275,3.5506401159685668,10.470081635767148,-209.96414129854278,229.0684367132067,-74.03677424277105,0,0,0,0,97234.046875,34.994789123535156,
1,3,0.975,-2.5983794918745713,3.4788616769665066,10.599282825970857,-221.19478141451134,236.7589837491417,-74.46402685587854,0,0,0,0,97234.046875,34.994789123535156,
1,3,0.976,-2.813714808880751,3.569781033035783,10.618423743038072,-238.28488593881133,248.35584039063096,-75.44060425726711,0,0,0,0,97235.078125,34.99943542480469,
1,3,0.978,-2.871137560082399,3.5841367208361947,10.56578622110323,-248.84412909132527,256.41260395208667,-76.66132600900282,0,0,0,0,97235.078125,34.99943542480469,
1,3,0.979,-2.808929579613947,3.526713969634547,10.594497596704052,-262.63828488593884,268.6198214694438,-78.79758907454033,0,0,0,0,97235.078125,34.99943542480469,
1,3,0.981,-2.756292057679103,3.4884321355001147,10.651920347905701,-271.1833371480888,276.8596932936599,-80.44556343938353,0,0,0,0,97235.078125,34.99943542480469,
1,3,0.982,-2.612735179674983,3.426224155031663,10.656705577172504,-279.72838941023883,285.09956511787595,-82.3376821545739,0,0,0,0,97238.7109375,34.994789123535156,
1,3,0.984,-2.5648828870069433,3.263526359960327,10.733269245441369,-292.48493171587705,297.0016021972992,-85.87777523460747,0,0,0,0,97238.7109375,34.994789123535156,
1,3,0.985,-2.507460135805295,3.1630365453574427,10.656705577172504,-300.3585870145724,304.8752574959945,-88.6854352635996,0,0,0,0,97238.7109375,34.994789123535156,
1,3,0.986,-2.440466926070039,2.957271686884871,10.699772640573741,-306.8894483863584,311.8944075684749,-91.00480659189746,0,0,0,0,97228.0703125,34.99943542480469,
1,3,0.988,-2.5026749065384912,2.746721599145495,10.781121538109408,-315.80071717402916,323.00297550926985,-95.33836881055925,0,0,0,0,97228.0703125,34.99943542480469,
1,3,0.989,-2.550527199206531,2.569668116273747,10.742839703974976,-320.86671244373235,329.7779812314031,-98.45120927748532,0,0,0,0,97228.0703125,34.99943542480469,
1,3,0.991,-2.536171511406119,2.4356816968032353,10.79547722590982,-325.9327077134356,335.88158999008164,-100.58747234302282,0,0,0,0,97228.0703125,34.99943542480469,
1,3,0.992,-2.579238574807355,2.3160509651331354,10.809832913710233,-331.54802777141987,344.42664225223166,-104.61585412375068,0,0,0,0,97238.421875,35.00408172607422,
1,3,0.994,-2.7180102235446713,2.182064545662623,10.86725566491188,-335.75951781490807,349.3095292591745,-106.6300450141146,0,0,0,0,97238.421875,35.00408172607422,
1,3,0.995,-2.928560311284047,2.0145815213244833,10.910322728313115,-338.4451056687266,353.64309147783626,-109.86495765621424,0,0,0,0,97238.421875,35.00408172607422,
1,3,0.997,-3.2061036087586787,2.0241519798580914,10.958175020981157,-343.8162813763638,360.29602502479594,-112.30640115968566,0,0,0,0,97236.375,34.994789123535156,
1,3,0.998,-3.387942320897231,1.8805951018539713,10.833759060044253,-347.47844663157093,364.08026245517664,-114.19851987487603,0,0,0,0,97236.375,34.994789123535156,
1,3,0.999,-3.6702708476386667,1.7896757457846955,10.833759060044253,-351.68993667505913,367.6203555352102,-115.66338597695888,0,0,0,0,97236.375,34.994789123535156,
1,3,1.001,-3.8999618524452586,1.6174074921797514,10.647135118638897,-357.1221484702831,373.2356755931945,-117.18928816662853,0,0,0,0,97236.375,34.994789123535156,
1,3,1.002,-4.072230106050203,1.4403540093080036,10.446155489433128,-361.2115663385977,376.53162432288093,-118.10482948043031,0,0,0,0,97233.015625,34.990142822265625,
1,3,1.004,-4.172719920653087,1.3494346532387276,10.398303196765088,-364.44647898069735,380.0106813153277,-119.08140688181888,0,0,0,0,97233.015625,34.990142822265625,
1,3,1.005,-4.048303959716183,1.2680857557030596,10.259531548027773,-370.5500877393759,384.7104600595102,-119.75280384527352,0,0,0,0,97233.015625,34.990142822265625,
1,3,1.007,-3.9717402914473188,1.2298039215686276,10.321739528496224,-375.12779430838486,387.57915617608916,-120.05798428320745,0,0,0,0,97235.078125,34.99943542480469,
1,3,1.008,-3.785116350041963,1.1245288776989397,10.278672465094989,-380.498970016022,389.8374914168002,-120.42420080872817,0,0,0,0,97235.078125,34.99943542480469,
1,3,1.01,-3.450150301365683,0.7991332875562678,10.264316777294576,-386.9687953002213,393.86587319752806,-120.66834515907532,0,0,0,0,97235.078125,34.99943542480469,
1,3,1.011,-3.263526359960327,0.4402410925459678,10.120759899290457,-389.898527504387,396.06317235065234,-121.52285038529031,0,0,0,0,97235.078125,34.99943542480469,
1,3,1.012,-2.6318760967421992,-0.028711375600823992,9.967632562752728,-390.6919966430152,399.1149767299916,-123.53704127565423,0,0,0,0,97230.6796875,34.990142822265625,
1,3,1.014,-2.3064805065995273,-0.4928786144808118,9.977203021286337,-388.79987792782487,401.49538414587624,-125.30708781567103,0,0,0,0,97230.6796875,34.990142822265625,
1,3,1.015,-1.8183871213855194,-0.8469855802243077,9.848001831082628,-384.5883878843366,403.2043945983063,-127.99267566948959,0,0,0,0,97230.6796875,34.990142822265625,
1,3,1.017,-1.1532402532997637,-1.3494346532387276,9.508250553139545,-375.7381551842527,406.134126802472,-133.0586709391928,0,0,0,0,97229.65625,34.98550033569336,
1,3,1.018,-0.7991332875562678,-1.6078370336461434,9.355123216601816,-369.02418554970626,407.59899290455485,-137.02601663233386,0,0,0,0,97229.65625,34.98550033569336,
1,3,1.02,-0.21533531700617992,-1.7609643701838713,9.091935606927597,-361.2115663385977,409.3690394445716,-141.05439841306173,0,0,0,0,97229.65625,34.98550033569336,
1,3,1.021,0.35410696574349587,-1.9140917067215995,8.766540016784925,-347.90569924467843,412.4208438239109,-147.6462958724346,0,0,0,0,97229.65625,34.98550033569336,
1,3,1.023,0.5742275120164798,-1.9380178530556194,8.60384222171359,-338.26199740596627,414.0077821011673,-151.61364156557565,0,0,0,0,97227.3203125,34.98550033569336,
1,3,1.024,0.8374151216906998,-2.038507667658503,8.422003509575037,-329.47280079346916,416.32715342946517,-155.88616769665066,0,0,0,0,97227.3203125,34.98550033569336,
1,3,1.025,1.0862470435645077,-1.9858701457236594,8.240164797436485,-317.50972762645915,419.4399938963913,-161.31837949187457,0,0,0,0,97227.3203125,34.98550033569336,
1,3,1.027,1.2154482337682155,-1.9810849164568554,8.048755626764326,-310.79575799191275,421.1490043488213,-164.98054474708172,0,0,0,0,97232.75,34.99943542480469,
1,3,1.028,1.1867368581673916,-1.9045212481879914,7.838205539024949,-304.9362935835813,423.77355611505305,-167.9713130388342,0,0,0,0,97232.75,34.99943542480469,
1,3,1.03,1.0144686045624476,-1.7609643701838713,7.656366826886398,-298.5275043869688,427.19157701991304,-172.3659113450828,0,0,0,0,97232.75,34.99943542480469,
1,3,1.031,0.9283344777599757,-1.6891859311818114,7.665937285420005,-296.0250247959106,429.1447318226902,-175.11253528648814,0,0,0,0,97235.6328125,34.98085403442383,
1,3,1.033,0.7082139314869917,-1.5504142824444955,7.464957656214238,-294.0108339055467,431.40306706340124,-177.06569008926527,0,0,0,0,97235.6328125,34.98085403442383,
1,3,1.034,0.2775432974746319,-1.4499244678416114,7.000790417334249,-293.4615091172656,434.2717631799802,-180.30060273136493,0,0,0,0,97235.6328125,34.98085403442383,
1,3,1.036,0.16269779507133594,-1.4882063019760434,6.675394827191578,-293.82772564278633,435.9197375448234,-181.39925230792707,0,0,0,0,97235.6328125,34.98085403442383,
1,3,1.037,-0.11484550240329597,-1.5360585946440835,6.393066300450142,-294.3770504310674,437.750820172427,-182.61997405966278,0,0,0,0,97228.34375,34.990142822265625,
1,3,1.039,-0.6029388876173037,-1.7035416189822234,5.933684290836958,-294.7432669565881,439.3377584496834,-184.51209277485313,0,0,0,0,97228.34375,34.990142822265625,
1,3,1.04,-0.6316502632181278,-1.7896757457846955,5.68485236896315,-295.1705195696956,440.43640802624554,-185.73281452658887,0,0,0,0,97228.34375,34.990142822265625,
1,3,1.041,-1.3542198825055316,-2.665372701609827,5.78055695429923,-296.20813305867097,442.02334630350197,-188.1132219424735,0,0,0,0,97230.40625,34.99943542480469,
1,3,1.043,-1.1101731898985276,-2.670157930876631,5.249396505683986,-295.1094834821088,442.57267109178304,-189.3339436942092,0,0,0,0,97230.40625,34.99943542480469,
1,3,1.044,-0.9139787899595637,-2.540956740672923,5.124980544747082,-293.27840085450526,443.30510414282446,-190.79880979629206,0,0,0,0,97230.40625,34.99943542480469,
1,3,1.046,-1.3685755703059435,-3.091258106355383,4.8091554131380185,-294.98741130693526,443.9765011062791,-193.36232547493708,0,0,0,0,97230.40625,34.99943542480469,
1,3,1.047,-1.4786358434424356,-3.287452506294347,4.177505149919891,-294.13290608072026,442.45059891660947,-193.91165026321815,0,0,0,0,97233.015625,34.990142822265625,
1,3,1.049,-1.4020721751735716,-3.5506401159685668,3.9525993743801027,-292.97322041657134,441.16884107728697,-194.5830472266728,0,0,0,0,97233.015625,34.990142822265625,
