Save Bit,FC State,Time,Pre-converted Accel X,Pre-converted Accel Y,Pre-converted Accel Z,Pre-converted Gyro X,Pre-converted Gyro Y,Pre-converted Gyro Z,Pre-converted Magnetometer X,Pre-converted Magnetometer Y,Pre-converted Magnetometer Z,Barometric Pressure,Barometric Temperature,Unit Quaternion W,Unit Quaternion X,Unit Quaternion Y,Unit Quaternion Z,Roll Body Rate,Velocity,Velo X,Velo Y,Velo Z,Barometric Altitude,GPS Altitude (ft),GPS Speed (KmH),GPS UTC Time,GPS Longitude (deg),GPS Latitude (deg),GPS North/South,GPS East/West,GPS GLL Status,GPS RMC Status,Canard Feedback
1,3,0.0000,-0.1531,0.1196,9.9963,-12.7779,-8.0659,-14.4411,-1.2264,1.6980,-58.5643,97080.5391,31.9676,0.6181,-0.2287,-0.6905,-0.2980,-14.4411,0.0000,0.0000,0.0000,0.0000,383.8098,0.0000,2.6000,134732.0000,12.5216,55.6721,b'N',b'E',b'\x00',b'A',0.0000
1,3,0.0000,0.0287,0.0383,9.7332,16.8856,-11.4839,11.1940,-1.2264,1.9182,-61.7970,97077.2109,32.0449,0.6183,-0.2306,-0.6919,-0.2927,11.1940,0.0000,0.0000,0.0000,0.0000,384.2157,0.0000,2.6000,134732.0000,12.5216,55.6721,b'N',b'E',b'\x00',b'A',0.0000
1,3,0.0310,-0.1962,-0.1196,9.9006,-5.2094,-1.9623,5.5787,-1.3207,2.0125,-58.5932,97078.8516,31.9452,0.6232,-0.2192,-0.6967,-0.2795,5.5787,0.0000,0.0000,0.0000,0.0000,383.9380,0.0000,2.6000,134732.0000,12.5216,55.6721,b'N',b'E',b'\x00',b'A',0.0000
1,3,0.0630,-0.0335,-0.0766,9.9198,6.0212,-6.4790,17.4807,-1.2893,1.8238,-60.8157,97075.9062,31.9361,0.6286,-0.2080,-0.7017,-0.2632,17.4807,0.0000,0.0000,0.0000,0.0000,384.1991,0.0000,2.6000,134732.0000,12.5216,55.6721,b'N',b'E',b'\x00',b'A',0.0000
1,3,0.0840,0.0526,0.1436,9.6614,2.0539,6.3996,-18.4085,-1.3521,2.0439,-58.4489,97074.9609,31.9873,0.6282,-0.2091,-0.6998,-0.2683,-18.4085,0.0000,0.0000,0.0000,0.0000,384.3521,0.0000,3.2000,134732.0000,12.5216,55.6721,b'N',b'E',b'\x00',b'A',0.0000
1,3,0.1060,0.0670,0.1340,9.6040,-14.5480,-9.9580,3.1983,-1.1006,1.8867,-59.0550,97080.8750,32.0811,0.6258,-0.2159,-0.6984,-0.2719,3.1983,0.0000,0.0000,0.0000,0.0000,383.9207,0.0000,3.2000,134732.0000,12.5216,55.6721,b'N',b'E',b'\x00',b'A',0.0000
1,3,0.1350,-0.0431,0.1627,9.8719,8.5237,-11.7891,6.1891,-1.1635,2.0125,-58.8530,97078.8828,31.9524,0.6226,-0.2242,-0.6974,-0.2751,6.1891,0.0000,0.0000,0.0000,0.0000,383.9441,0.0000,3.2000,134732.0000,12.5216,55.6721,b'N',b'E',b'\x00',b'A',0.0000
1,3,0.1660,0.0622,-0.1914,9.8528,-7.7729,12.1981,-8.5206,-1.4150,1.8238,-59.6034,97079.1875,31.9064,0.6286,-0.2120,-0.6989,-0.2674,-8.5206,0.0000,0.0000,0.0000,0.0000,383.8573,0.0000,3.2000,134732.0000,12.5216,55.6721,b'N',b'E',b'\x00',b'A',0.0000
1,3,0.1980,0.1627,0.0479,9.9628,15.4818,-0.3143,-14.5632,-1.1006,1.8553,-58.3623,97076.3125,31.9850,0.6302,-0.2046,-0.7011,-0.2637,-14.5632,0.0000,0.0000,0.0000,0.0000,384.2236,0.0000,3.2000,134732.0000,12.5216,55.6721,b'N',b'E',b'\x00',b'A',0.0000
1,3,0.2290,-0.0909,-0.0861,9.6135,6.3264,9.8177,-14.4411,-1.3836,1.8238,-58.4200,97072.8594,32.0405,0.6359,-0.1868,-0.7052,-0.2517,-14.4411,0.0000,0.0000,0.0000,0.0000,384.6135,0.0000,3.2000,134732.0000,12.5216,55.6721,b'N',b'E',b'\x00',b'A',0.0000
1,3,0.2570,-0.0957,-0.1866,9.8815,1.3214,-10.4463,-14.0749,-1.2578,1.9182,-61.4218,97077.3359,31.9148,0.6375,-0.1713,-0.7118,-0.2400,-14.0749,0.0000,0.0000,0.0000,0.0000,384.0397,0.0000,3.2000,134732.0000,12.5216,55.6721,b'N',b'E',b'\x00',b'A',0.0000
1,3,0.2880,-0.1436,-0.0861,9.9294,8.6458,9.2073,-12.4880,-1.3207,1.9496,-59.5745,97078.3359,32.0336,0.6429,-0.1530,-0.7153,-0.2272,-12.4880,0.0000,0.0000,0.0000,0.0000,384.0966,0.0000,3.2000,134733.0000,12.5216,55.6721,b'N',b'E',b'\x00',b'A',0.0000
1,3,0.3180,0.0431,0.0287,9.6279,-1.1200,-1.6571,-13.2204,-1.2264,2.0754,-61.9702,97074.8984,32.0491,0.6424,-0.1518,-0.7154,-0.2292,-13.2204,0.0000,0.0000,0.0000,0.0000,384.4351,0.0000,3.2000,134733.0000,12.5216,55.6721,b'N',b'E',b'\x00',b'A',0.0000
1,3,0.3500,-0.0718,-0.0048,9.9294,-12.8389,21.2314,2.5269,-1.4465,1.6980,-60.5848,97076.3594,31.9687,0.6497,-0.1393,-0.7146,-0.2188,2.5269,0.0000,0.0000,0.0000,0.0000,384.1990,0.0000,3.2000,134733.0000,12.5216,55.6721,b'N',b'E',b'\x00',b'A',0.0000
1,3,0.3810,0.1053,-0.0526,9.6709,-17.1115,-2.7558,11.4382,-1.1320,1.7609,-58.6509,97075.7188,32.0778,0.6516,-0.1389,-0.7147,-0.2129,11.4382,0.0000,0.0000,0.0000,0.0000,384.3951,0.0000,3.2000,134733.0000,12.5216,55.6721,b'N',b'E',b'\x00',b'A',0.0000
1,3,0.4130,0.1101,0.0766,9.8576,12.9183,-8.5542,17.0535,-1.1320,1.9811,-61.4795,97079.6953,31.9945,0.6520,-0.1419,-0.7155,-0.2069,17.0535,0.0000,0.0000,0.0000,0.0000,383.9218,0.0000,3.2000,134733.0000,12.5216,55.6721,b'N',b'E',b'\x00',b'A',0.0000
1,3,0.4440,-0.0335,-0.0574,9.9581,-16.5011,-7.5776,-0.7080,-1.2264,1.8867,-58.4777,97079.3984,32.0246,0.6534,-0.1318,-0.7191,-0.1964,-0.7080,0.0000,0.0000,0.0000,0.0000,383.9865,0.0000,3.2000,134733.0000,12.5216,55.6721,b'N',b'E',b'\x00',b'A',0.0000
1,3,0.4750,0.0335,0.1531,9.7762,9.0120,6.8879,-10.4128,-1.3836,1.8238,-58.2757,97081.2656,31.9670,0.6539,-0.1344,-0.7167,-0.2020,-10.4128,0.0000,0.0000,0.0000,0.0000,383.7413,0.0000,3.2000,134733.0000,12.5216,55.6721,b'N',b'E',b'\x00',b'A',0.0000
1,3,0.5070,-0.1914,-0.0383,9.6614,-10.4585,-12.6436,-18.9578,-1.4150,1.9811,-61.1332,97073.0781,32.0955,0.6532,-0.1190,-0.7224,-0.1932,-18.9578,0.0000,0.0000,0.0000,0.0000,384.6622,0.0000,3.2000,134733.0000,12.5216,55.6721,b'N',b'E',b'\x00',b'A',0.0000
1,3,0.5380,-0.1579,0.0383,9.6518,-15.0973,9.5125,7.3487,-1.3836,1.6980,-59.6323,97077.4766,31.9250,0.6520,-0.1360,-0.7164,-0.2078,7.3487,0.0000,0.0000,0.0000,0.0000,384.0402,0.0000,3.2000,134733.0000,12.5216,55.6721,b'N',b'E',b'\x00',b'A',0.0000
1,3,0.5680,0.0479,0.1723,9.6662,14.4442,15.7992,6.0670,-1.3207,2.0754,-59.7477,97078.5469,32.0325,0.6552,-0.1399,-0.7122,-0.2093,6.0670,0.0000,0.0000,0.0000,0.0000,384.0757,0.0000,3.2000,134733.0000,12.5216,55.6721,b'N',b'E',b'\x00',b'A',0.0000
1,3,0.5990,-0.0861,-0.1914,9.9294,14.9935,14.5785,-2.7222,-1.1320,1.7609,-59.6900,97077.0391,31.9269,0.6618,-0.1230,-0.7136,-0.1942,-2.7222,0.0000,0.0000,0.0000,0.0000,384.0826,0.0000,3.2000,134733.0000,12.5216,55.6721,b'N',b'E',b'\x00',b'A',0.0000
1,3,0.6300,0.0144,0.1244,9.7810,1.2604,15.9213,-5.7740,-1.3207,1.7609,-60.8157,97081.5859,31.9548,0.6637,-0.1281,-0.7089,-0.2015,-5.7740,0.0000,0.0000,0.0000,0.0000,383.6960,0.0000,3.2000,134733.0000,12.5216,55.6721,b'N',b'E',b'\x00',b'A',0.0000
1,3,0.6610,0.0909,0.0144,9.6231,-2.0356,-5.6245,-6.9337,-1.1949,1.7609,-61.7393,97079.8594,32.0683,0.6628,-0.1259,-0.7104,-0.2004,-6.9337,0.0000,0.0000,0.0000,0.0000,383.9993,0.0000,3.2000,134733.0000,12.5216,55.6721,b'N',b'E',b'\x00',b'A',0.0000
1,3,0.7010,-0.0622,0.0909,9.9916,-17.4777,-11.7281,16.8704,-1.1006,1.8553,-60.0941,97074.4141,31.9526,0.6587,-0.1437,-0.7080,-0.2102,16.8704,0.0000,0.0000,0.0000,0.0000,384.3588,0.0000,3.2000,134734.0000,12.5216,55.6721,b'N',b'E',b'\x00',b'A',0.0000
1,3,0.7320,0.0048,-0.0813,9.7427,4.7395,14.2123,-4.5533,-1.3521,2.0754,-58.5066,97077.8203,32.0104,0.6646,-0.1298,-0.7085,-0.1986,-4.5533,0.0000,0.0000,0.0000,0.0000,384.1158,0.0000,3.2000,134734.0000,12.5216,55.6721,b'N',b'E',b'\x00',b'A',0.0000
1,3,0.7640,-0.0287,-0.0383,9.9006,-18.8815,22.8183,-13.7087,-1.4465,2.0439,-58.2180,97074.3750,32.0379,0.6706,-0.1159,-0.7074,-0.1910,-13.7087,0.0000,0.0000,0.0000,0.0000,384.4703,0.0000,3.2000,134734.0000,12.5216,55.6721,b'N',b'E',b'\x00',b'A',0.0000
1,3,0.7920,-0.1723,0.0000,9.9341,-16.4401,11.7098,-5.1026,-1.2578,1.7609,-60.4405,97076.1016,31.9091,0.6689,-0.1312,-0.7013,-0.2088,-5.1026,0.0000,0.0000,0.0000,0.0000,384.1476,0.0000,3.2000,134734.0000,12.5216,55.6721,b'N',b'E',b'\x00',b'A',0.0000
1,3,0.8230,-0.1005,0.1579,9.8193,7.8523,-4.9531,0.1465,-1.4465,2.0125,-60.8157,97073.1172,32.0399,0.6660,-0.1409,-0.6998,-0.2166,0.1465,0.0000,0.0000,0.0000,0.0000,384.5891,0.0000,3.2000,134734.0000,12.5216,55.6721,b'N',b'E',b'\x00',b'A',0.0000
1,3,0.8540,-0.0335,0.1101,9.9341,-0.4486,-2.5727,-21.9486,-1.1006,1.6980,-58.9107,97076.5547,31.9349,0.6623,-0.1463,-0.6984,-0.2285,-21.9486,0.0000,0.0000,0.0000,0.0000,384.1379,0.0000,3.2000,134734.0000,12.5216,55.6721,b'N',b'E',b'\x00',b'A',0.0000
1,3,0.8850,-0.1436,-0.1388,9.6757,9.1951,5.6672,1.7945,-1.2578,2.0439,-60.4982,97080.6953,31.9181,0.6675,-0.1308,-0.7014,-0.2128,1.7945,0.0000,0.0000,0.0000,0.0000,383.7321,0.0000,3.2000,134734.0000,12.5216,55.6721,b'N',b'E',b'\x00',b'A',0.0000
1,3,0.9170,-0.1962,-0.0239,9.9198,9.3782,-13.9864,15.6497,-1.2264,1.8867,-61.2775,97072.0859,31.9099,0.6696,-0.1184,-0.7069,-0.1950,15.6497,0.0000,0.0000,0.0000,0.0000,384.5209,0.0000,3.2000,134734.0000,12.5216,55.6721,b'N',b'E',b'\x00',b'A',0.0000
1,3,0.9420,0.1196,0.1005,9.8863,-15.1583,9.3294,-13.7087,-1.2264,1.9182,-59.9786,97080.7656,31.9478,0.6702,-0.1206,-0.7043,-0.2008,-13.7087,0.0000,0.0000,0.0000,0.0000,383.7634,0.0000,3.2000,134734.0000,12.5216,55.6721,b'N',b'E',b'\x00',b'A',0.0000
1,3,0.9690,0.1771,0.0574,9.9916,-0.2045,6.2165,0.5127,-1.1949,2.0439,-61.3641,97077.4531,32.0000,0.6722,-0.1202,-0.7029,-0.1991,0.5127,0.0000,0.0000,0.0000,0.0000,384.1366,0.0000,3.2000,134734.0000,12.5216,55.6721,b'N',b'E',b'\x00',b'A',0.0000
1,3,1.0020,-0.1196,-0.0526,9.6040,10.4768,-6.5400,-1.6236,-1.1006,1.8867,-58.1602,97078.5234,31.9852,0.6740,-0.1037,-0.7082,-0.1827,-1.6236,0.0000,0.0000,0.0000,0.0000,384.0182,0.0000,3.2000,134734.0000,12.5216,55.6721,b'N',b'E',b'\x00',b'A',0.0000
1,3,1.0410,0.0383,0.1531,9.6805,1.6876,-1.9623,3.6255,-1.3521,1.9811,-59.4014,97079.6250,32.0960,0.6730,-0.1111,-0.7069,-0.1870,3.6255,0.0000,0.0000,0.0000,0.0000,384.0557,0.0000,3.2000,134734.0000,12.5216,55.6721,b'N',b'E',b'\x00',b'A',0.0000
1,3,1.0720,-0.1388,-0.0526,9.7427,10.8431,11.6487,-6.6285,-1.1635,1.9811,-61.3641,97072.5703,31.9161,0.6782,-0.0929,-0.7083,-0.1725,-6.6285,0.0000,0.0000,0.0000,0.0000,384.4835,0.0000,3.2000,134734.0000,12.5216,55.6721,b'N',b'E',b'\x00',b'A',0.0000
1,3,1.1040,0.0239,-0.1005,9.8815,16.8856,21.2314,9.6071,-1.2578,1.8553,-59.9786,97077.5547,31.9564,0.6854,-0.0805,-0.7065,-0.1568,9.6071,0.0000,0.0000,0.0000,0.0000,384.0725,0.0000,3.2000,134734.0000,12.5216,55.6721,b'N',b'E',b'\x00',b'A',0.0000
1,3,1.1360,0.1914,-0.0431,9.7044,-6.0639,-8.3711,13.8796,-1.4465,1.9496,-60.3250,97072.2578,32.0149,0.6853,-0.0814,-0.7079,-0.1507,13.8796,0.0000,0.0000,0.0000,0.0000,384.6368,0.0000,3.2000,34138.0000,-105.1125,39.8980,b'N',b'W',b'A',b'A',0.0000
1,3,1.1670,0.0861,0.1675,9.7523,-5.9419,2.4323,0.7568,-1.1006,2.0125,-61.3064,97080.4922,31.9055,0.6851,-0.0885,-0.7060,-0.1563,0.7568,0.0000,0.0000,0.0000,0.0000,383.7359,0.0000,3.2000,34138.0000,-105.1125,39.8980,b'N',b'W',b'A',b'A',0.0000
1,3,1.1990,-0.1675,0.0335,9.6662,-12.3507,5.6062,1.6114,-1.3836,1.7609,-59.3436,97081.1953,32.0960,0.6835,-0.1047,-0.7017,-0.1717,1.6114,0.0000,0.0000,0.0000,0.0000,383.9096,0.0000,3.2000,34138.0000,-105.1125,39.8980,b'N',b'W',b'A',b'A',0.0000
1,3,1.2300,-0.1627,-0.1531,9.8145,5.9602,6.7048,2.7100,-1.2578,1.8867,-61.9125,97079.0156,32.0926,0.6878,-0.0899,-0.7032,-0.1564,2.7100,0.0000,0.0000,0.0000,0.0000,384.1080,0.0000,3.2000,34138.0000,-105.1125,39.8980,b'N',b'W',b'A',b'A',0.0000
1,3,1.2620,0.1866,0.1627,9.9628,10.7210,-10.3853,-4.7974,-1.1006,1.9496,-60.9311,97078.0781,31.9013,0.6858,-0.0907,-0.7049,-0.1568,-4.7974,0.0000,0.0000,0.0000,0.0000,383.9548,0.0000,3.2000,34138.0000,-105.1125,39.8980,b'N',b'W',b'A',b'A',0.0000
1,3,1.2940,0.0813,0.0670,9.7427,-6.0029,7.8645,2.0996,-1.1949,1.7295,-58.6798,97075.1250,32.0456,0.6871,-0.0949,-0.7025,-0.1594,2.0996,0.0000,0.0000,0.0000,0.0000,384.4100,0.0000,3.2000,34138.0000,-105.1125,39.8980,b'N',b'W',b'A',b'A',0.0000
1,3,1.3250,-0.1531,0.0766,9.8815,13.1014,14.0902,6.0670,-1.3836,1.9496,-59.0550,97076.3359,31.9774,0.6880,-0.1063,-0.6977,-0.1687,6.0670,0.0000,0.0000,0.0000,0.0000,384.2120,0.0000,3.2000,202725.0000,-114.0307,51.1504,b'N',b'W',b'A',b'A',0.0000
1,3,1.3560,-0.0144,0.0526,9.8001,-7.8340,-14.7799,-13.7087,-1.1949,1.9496,-60.9023,97075.6641,31.9920,0.6826,-0.1156,-0.6985,-0.1810,-13.7087,0.0000,0.0000,0.0000,0.0000,384.2922,0.0000,3.2000,202725.0000,-114.0307,51.1504,b'N',b'W',b'A',b'A',0.0000
1,3,1.3870,-0.0239,-0.1675,9.8289,-10.2144,23.4287,-9.4362,-1.2264,1.9811,-58.9973,97081.5156,32.0245,0.6890,-0.1025,-0.6964,-0.1728,-9.4362,0.0000,0.0000,0.0000,0.0000,383.7898,0.0000,3.2000,202725.0000,-114.0307,51.1504,b'N',b'W',b'A',b'A',0.0000
1,3,1.4180,0.0335,0.0861,9.6135,-6.6743,9.9397,6.4332,-1.2893,1.6980,-61.2198,97075.9766,32.0384,0.6900,-0.1107,-0.6928,-0.1779,6.4332,0.0000,0.0000,0.0000,0.0000,384.3217,0.0000,3.2000,202725.0000,-114.0307,51.1504,b'N',b'W',b'A',b'A',0.0000
1,3,1.4500,-0.0048,0.0670,9.7667,-2.4018,-8.1270,-6.7506,-1.4779,1.9811,-60.5848,97079.4219,32.0838,0.6864,-0.1189,-0.6927,-0.1869,-6.7506,0.0000,0.0000,0.0000,0.0000,384.0589,0.0000,3.2000,202725.0000,-114.0307,51.1504,b'N',b'W',b'A',b'A',0.0000
1,3,1.4820,-0.0096,-0.0526,9.9437,-10.8247,5.3010,4.5411,-1.2578,1.9496,-58.2180,97072.0469,31.9743,0.6900,-0.1093,-0.6936,-0.1755,4.5411,0.0000,0.0000,0.0000,0.0000,384.6062,0.0000,3.2000,202725.0000,-114.0307,51.1504,b'N',b'W',b'A',b'A',0.0000
1,3,1.5130,0.1723,0.1483,9.9054,17.1298,-15.2682,12.9030,-1.1635,1.8553,-61.8836,97075.7422,32.0446,0.6881,-0.1121,-0.6963,-0.1709,12.9030,0.0000,0.0000,0.0000,0.0000,384.3512,0.0000,3.2000,134730.3594,12.5214,55.6720,b'N',b'E',b'A',b'A',0.0000
1,3,1.5450,0.0096,0.0574,9.9389,13.1624,-6.4179,-0.5249,-1.4150,1.8238,-58.5643,97077.4453,31.9470,0.6860,-0.1170,-0.6966,-0.1745,-0.5249,0.0000,0.0000,0.0000,0.0000,384.0709,0.0000,3.2000,134730.3594,12.5214,55.6720,b'N',b'E',b'A',b'A',0.0000
1,3,1.5760,-0.1340,-0.0287,9.7044,16.3973,9.4514,-6.0182,-1.4465,1.9811,-59.9498,97073.2500,31.9771,0.6907,-0.0981,-0.6986,-0.1588,-6.0182,0.0000,0.0000,0.0000,0.0000,384.4976,0.0000,3.2000,134730.3594,12.5214,55.6720,b'N',b'E',b'A',b'A',0.0000
1,3,1.6070,0.0048,-0.0718,9.8001,-17.7829,8.5969,-7.3610,-1.3207,2.0754,-60.9311,97081.0547,32.0614,0.6937,-0.0887,-0.6983,-0.1523,-7.3610,0.0000,0.0000,0.0000,0.0000,383.8795,0.0000,3.2000,134730.3594,12.5214,55.6720,b'N',b'E',b'A',b'A',0.0000
1,3,1.6390,0.0861,-0.0957,9.6183,-0.0214,12.9915,1.4282,-1.1320,1.6980,-60.2673,97072.5703,31.9496,0.6976,-0.0812,-0.6971,-0.1440,1.4282,0.0000,0.0000,0.0000,0.0000,384.5257,0.0000,3.2000,134730.3594,12.5214,55.6720,b'N',b'E',b'A',b'A',0.0000
1,3,1.6700,-0.1292,0.1436,9.7523,16.3363,-2.5116,6.3111,-1.4150,1.8238,-60.0364,97077.0156,31.9255,0.6959,-0.0917,-0.6961,-0.1511,6.3111,0.0000,0.0000,0.0000,0.0000,384.0830,0.0000,3.2000,134730.3594,12.5214,55.6720,b'N',b'E',b'A',b'A',0.0000
1,3,1.7020,0.0526,-0.0766,9.6470,3.3967,3.6530,1.3672,-1.1006,1.7924,-60.9889,97072.9766,31.9628,0.6982,-0.0830,-0.6969,-0.1412,1.3672,0.0000,0.0000,0.0000,0.0000,384.5053,0.0000,3.2000,134730.3594,12.5214,55.6720,b'N',b'E',b'A',b'A',0.0000
1,3,1.7330,0.0861,0.1388,9.7954,-0.3265,10.0618,6.9215,-1.1320,1.8238,-61.4795,97080.5703,31.9988,0.6997,-0.0894,-0.6940,-0.1444,6.9215,0.0000,0.0000,0.0000,0.0000,383.8460,0.0000,3.2000,134731.3594,12.5216,55.6721,b'N',b'E',b'A',b'A',0.0000
1,3,1.7640,0.1579,0.0574,9.9389,10.9041,-3.4882,6.3722,-1.3836,1.7295,-59.6323,97076.1172,31.9852,0.6996,-0.0893,-0.6949,-0.1406,6.3722,0.0000,0.0000,0.0000,0.0000,384.2415,0.0000,3.2000,134731.3594,12.5216,55.6721,b'N',b'E',b'A',b'A',0.0000
1,3,1.7960,-0.0383,-0.0813,9.9533,1.5045,-11.9722,-10.1076,-1.2578,2.0125,-59.2282,97073.0781,31.9069,0.6990,-0.0747,-0.6995,-0.1288,-10.1076,0.0000,0.0000,0.0000,0.0000,384.4245,0.0000,3.2000,134731.3594,12.5216,55.6721,b'N',b'E',b'A',b'A',0.0000
1,3,1.8280,0.1962,0.0909,9.6518,-7.0405,-12.5826,11.8654,-1.1949,1.9811,-58.3045,97072.0000,31.9052,0.6969,-0.0802,-0.7010,-0.1281,11.8654,0.0000,0.0000,0.0000,0.0000,384.5232,0.0000,3.2000,134731.3594,12.5216,55.6721,b'N',b'E',b'A',b'A',0.0000
1,3,1.8590,0.0096,0.1005,9.6997,19.1440,3.7140,6.2501,-1.3207,1.7609,-58.3911,97075.2188,31.9258,0.6972,-0.0859,-0.6996,-0.1306,6.2501,0.0000,0.0000,0.0000,0.0000,384.2499,0.0000,3.2000,134731.3594,12.5216,55.6721,b'N',b'E',b'A',b'A',0.0000
1,3,1.8910,0.0957,0.1866,9.7954,-1.7914,19.4614,0.6958,-1.4150,1.6980,-61.8836,97075.4766,32.0481,0.7002,-0.0915,-0.6948,-0.1362,0.6958,0.0000,0.0000,0.0000,0.0000,384.3803,0.0000,3.2000,134731.3594,12.5216,55.6721,b'N',b'E',b'A',b'A',0.0000
1,3,1.9230,-0.0479,-0.0526,9.8959,-16.0739,11.0994,-3.2105,-1.4150,1.9496,-61.7682,97080.1016,32.0792,0.7039,-0.0799,-0.6944,-0.1263,-3.2105,0.0000,0.0000,0.0000,0.0000,383.9904,0.0000,3.2000,134731.3594,12.5216,55.6721,b'N',b'E',b'A',b'A',0.0000
1,3,1.9540,-0.1675,-0.0813,9.9724,-9.7261,-6.3569,-2.1729,-1.1320,1.8238,-60.5848,97076.4688,31.9385,0.7044,-0.0673,-0.6973,-0.1143,-2.1729,0.0000,0.0000,0.0000,0.0000,384.1507,0.0000,2.6000,134731.3594,12.5216,55.6721,b'N',b'E',b'A',b'A',0.0000
1,3,1.9860,-0.1340,0.1244,9.9724,18.4726,17.8744,-6.3233,-1.1635,1.8867,-61.3930,97074.3125,32.0403,0.7063,-0.0748,-0.6929,-0.1244,-6.3233,0.0000,0.0000,0.0000,0.0000,384.4784,0.0000,2.6000,134731.3594,12.5216,55.6721,b'N',b'E',b'A',b'A',0.0000
1,3,2.0170,0.0574,0.0622,9.9581,13.8338,12.4422,-5.5299,-1.4779,1.6980,-58.1891,97079.8281,32.0076,0.7080,-0.0751,-0.6907,-0.1264,-5.5299,0.0000,0.0000,0.0000,0.0000,383.9260,0.0000,2.6000,134731.3594,12.5216,55.6721,b'N',b'E',b'A',b'A',0.0000
1,3,2.0480,-0.0431,-0.1866,9.9246,-4.6601,0.8454,3.3204,-1.2578,2.0754,-61.0466,97080.2578,32.0037,0.7099,-0.0645,-0.6920,-0.1143,3.3204,0.0000,0.0000,0.0000,0.0000,383.8810,0.0000,2.6000,134731.3594,12.5216,55.6721,b'N',b'E',b'A',b'A',0.0000
1,3,2.0800,0.0766,-0.0431,9.7571,11.9417,13.4798,17.4197,-1.4465,1.8553,-60.0652,97072.9531,31.9579,0.7136,-0.0603,-0.6902,-0.1034,17.4197,0.0000,0.0000,0.0000,0.0000,384.5012,0.0000,2.6000,134731.3594,12.5216,55.6721,b'N',b'E',b'A',b'A',0.0000
1,3,2.1110,-0.1053,0.1244,9.6949,13.7118,23.1235,-11.3893,-1.1949,1.8238,-59.5745,97080.9531,32.0293,0.7164,-0.0672,-0.6849,-0.1151,-11.3893,0.0000,0.0000,0.0000,0.0000,383.8484,0.0000,2.6000,134731.3594,12.5216,55.6721,b'N',b'E',b'A',b'A',0.0000
1,3,2.1430,-0.0383,-0.0479,9.6375,-6.2470,-0.1312,7.8370,-1.4779,1.7295,-60.9889,97080.1797,31.9662,0.7181,-0.0564,-0.6863,-0.1011,7.8370,0.0000,0.0000,0.0000,0.0000,383.8411,0.0000,2.6000,134732.0000,12.5216,55.6721,b'N',b'E',b'A',b'A',0.0000
1,3,2.1740,0.1148,0.0622,9.9389,-8.4443,21.2314,-3.0274,-1.1006,1.6980,-61.0755,97078.8281,32.0530,0.7213,-0.0593,-0.6821,-0.1050,-3.0274,0.0000,0.0000,0.0000,0.0000,384.0757,0.0000,2.6000,134732.0000,12.5216,55.6721,b'N',b'E',b'A',b'A',0.0000
1,3,2.2050,0.0383,0.1196,9.7906,-9.9702,22.5132,-13.7697,-1.4465,1.8238,-61.9414,97078.8281,31.9032,0.7236,-0.0655,-0.6772,-0.1161,-13.7697,0.0000,0.0000,0.0000,0.0000,383.8872,0.0000,2.6000,134732.0000,12.5216,55.6721,b'N',b'E',b'A',b'A',0.0000
1,3,2.2350,0.0431,-0.0957,9.9820,13.4066,-13.0098,-20.7889,-1.1635,2.0439,-60.0364,97072.3438,32.0817,0.7215,-0.0506,-0.6820,-0.1081,-20.7889,0.0000,0.0000,0.0000,0.0000,384.7138,0.0000,2.6000,134732.0000,12.5216,55.6721,b'N',b'E',b'A',b'A',0.0000
1,3,2.2670,0.1675,0.1148,9.8289,-6.3081,13.2357,-8.2155,-1.3521,1.6980,-61.1620,97072.0469,31.9690,0.7231,-0.0532,-0.6794,-0.1130,-8.2155,0.0000,0.0000,0.0000,0.0000,384.5995,0.0000,2.6000,134732.0000,12.5216,55.6721,b'N',b'E',b'A',b'A',0.0000
1,3,2.2980,0.0335,-0.0670,9.9724,3.7629,-2.7558,8.0201,-1.4465,1.8553,-60.4116,97080.3359,31.9232,0.7236,-0.0456,-0.6812,-0.1015,8.0201,0.0000,0.0000,0.0000,0.0000,383.7725,0.0000,2.6000,134732.0000,12.5216,55.6721,b'N',b'E',b'A',b'A',0.0000
1,3,2.3290,-0.1292,-0.0191,9.9389,13.4066,-13.0709,-2.6612,-1.2893,1.9811,-58.7952,97078.6797,31.9656,0.7225,-0.0283,-0.6856,-0.0850,-2.6612,0.0000,0.0000,0.0000,0.0000,383.9792,0.0000,2.6000,134732.0000,12.5216,55.6721,b'N',b'E',b'A',b'A',0.0000
1,3,2.3610,0.1196,0.0239,9.8480,6.4485,-6.6621,2.8931,-1.3207,1.6980,-58.5932,97081.9062,31.9341,0.7211,-0.0286,-0.6873,-0.0829,2.8931,0.0000,0.0000,0.0000,0.0000,383.6401,0.0000,2.6000,134732.0000,12.5216,55.6721,b'N',b'E',b'A',b'A',0.0000
1,3,2.3930,-0.1388,0.0144,9.9485,13.1014,-10.9346,-1.6236,-1.2893,1.7609,-60.7291,97075.1562,31.9792,0.7178,-0.0403,-0.6886,-0.0947,-1.6236,0.0000,0.0000,0.0000,0.0000,384.3233,0.0000,2.6000,134732.0000,12.5216,55.6721,b'N',b'E',b'A',b'A',0.0000
1,3,2.4250,0.1053,-0.1101,9.8719,-5.3925,-10.6294,9.1188,-1.2264,1.9811,-59.9786,97077.6172,32.0389,0.7164,-0.0370,-0.6913,-0.0866,9.1188,0.0000,0.0000,0.0000,0.0000,384.1702,0.0000,2.6000,134732.0000,12.5216,55.6721,b'N',b'E',b'A',b'A',0.0000
1,3,2.4570,-0.1866,0.0813,9.8384,6.9368,14.2733,10.9499,-1.2578,1.9811,-60.1807,97073.6484,31.9440,0.7181,-0.0513,-0.6873,-0.0967,10.9499,0.0000,0.0000,0.0000,0.0000,384.4189,0.0000,2.6000,134732.0000,12.5216,55.6721,b'N',b'E',b'A',b'A',0.0000
1,3,2.4880,-0.1196,-0.1627,9.7236,16.3363,3.0426,9.6071,-1.2893,1.7295,-59.9209,97076.7969,32.0425,0.7203,-0.0366,-0.6883,-0.0785,9.6071,0.0000,0.0000,0.0000,0.0000,384.2508,0.0000,2.6000,134732.0000,12.5216,55.6721,b'N',b'E',b'A',b'A',0.0000
1,3,2.5200,-0.1723,-0.1244,9.7332,-8.9937,21.0483,14.3069,-1.1635,1.8553,-60.8445,97081.1797,32.0941,0.7255,-0.0267,-0.6848,-0.0637,14.3069,0.0000,0.0000,0.0000,0.0000,383.9093,0.0000,2.6000,134732.0000,12.5216,55.6721,b'N',b'E',b'A',b'A',0.0000
1,3,2.5510,-0.1579,-0.1818,9.8480,-8.7495,4.8127,-17.0047,-1.2264,1.7924,-59.1416,97079.4609,31.9132,0.7267,-0.0118,-0.6846,-0.0553,-17.0047,0.0000,0.0000,0.0000,0.0000,383.8412,0.0000,3.2000,134732.0000,12.5216,55.6721,b'N',b'E',b'A',b'A',0.0000
1,3,2.5820,-0.0670,-0.1483,9.9581,12.5521,-0.0092,16.8704,-1.3521,1.8238,-58.9684,97079.5938,31.9224,0.7273,-0.0002,-0.6853,-0.0370,16.8704,0.0000,0.0000,0.0000,0.0000,383.8404,0.0000,3.2000,134732.0000,12.5216,55.6721,b'N',b'E',b'A',b'A',0.0000
1,3,2.6140,-0.0191,0.0239,9.7906,18.1674,23.1235,-2.9053,-1.2893,1.7924,-61.9702,97075.5156,31.9319,0.7309,-0.0088,-0.6808,-0.0468,-2.9053,0.0000,0.0000,0.0000,0.0000,384.2308,0.0000,3.2000,134732.0000,12.5216,55.6721,b'N',b'E',b'A',b'A',0.0000
1,3,2.6460,-0.1196,0.0431,9.8193,9.8054,11.1604,-3.6378,-1.3207,1.8238,-61.6527,97079.0859,32.0135,0.7323,-0.0202,-0.6781,-0.0596,-3.6378,0.0000,0.0000,0.0000,0.0000,384.0024,0.0000,3.2000,134732.0000,12.5216,55.6721,b'N',b'E',b'A',b'A',0.0000
1,3,2.6770,0.0766,-0.1675,9.7332,-2.9511,-0.9857,-2.4170,-1.4465,2.0125,-61.7682,97079.4453,32.0016,0.7321,-0.0123,-0.6791,-0.0520,-2.4170,0.0000,0.0000,0.0000,0.0000,383.9535,0.0000,3.2000,134732.0000,12.5216,55.6721,b'N',b'E',b'A',b'A',0.0000
1,3,2.7090,-0.0239,0.1101,9.6040,9.3782,12.7474,-5.4078,-1.2264,2.0754,-59.4302,97072.7812,32.0570,0.7336,-0.0202,-0.6764,-0.0617,-5.4078,0.0000,0.0000,0.0000,0.0000,384.6414,0.0000,3.2000,134732.0000,12.5216,55.6721,b'N',b'E',b'A',b'A',0.0000
1,3,2.7410,-0.1340,-0.0048,9.7714,11.8196,19.9496,4.7242,-1.4150,1.8867,-61.9125,97074.9453,31.9780,0.7382,-0.0038,-0.6731,-0.0443,4.7242,0.0000,0.0000,0.0000,0.0000,384.3414,0.0000,3.2000,134732.0000,12.5216,55.6721,b'N',b'E',b'A',b'A',0.0000
1,3,2.7730,-0.0670,-0.1531,9.8001,17.8622,-0.4974,10.5837,-1.3207,1.7924,-60.2673,97080.7578,31.9033,0.7382,0.0100,-0.6740,-0.0265,10.5837,0.0000,0.0000,0.0000,0.0000,383.7084,0.0000,3.2000,134733.0000,12.5216,55.6721,b'N',b'E',b'A',b'A',0.0000
1,3,2.8050,0.0048,0.0718,9.7092,-10.3975,10.7942,3.8087,-1.3836,2.0754,-59.3148,97074.2031,31.9129,0.7395,-0.0025,-0.6721,-0.0369,3.8087,0.0000,0.0000,0.0000,0.0000,384.3282,0.0000,3.2000,134733.0000,12.5216,55.6721,b'N',b'E',b'A',b'A',0.0000
1,3,2.8350,-0.0144,0.1579,9.9820,11.7586,-16.0006,13.8186,-1.1635,1.6980,-60.5848,97078.9297,31.9185,0.7360,-0.0134,-0.6756,-0.0418,13.8186,0.0000,0.0000,0.0000,0.0000,383.8972,0.0000,3.2000,134733.0000,12.5216,55.6721,b'N',b'E',b'A',b'A',0.0000
1,3,2.8670,-0.0479,-0.1436,9.5992,-17.7829,11.5877,14.0627,-1.2578,2.0439,-58.5066,97080.9844,32.0379,0.7383,-0.0075,-0.6737,-0.0303,14.0627,0.0000,0.0000,0.0000,0.0000,383.8561,0.0000,3.2000,134733.0000,12.5216,55.6721,b'N',b'E',b'A',b'A',0.0000
1,3,2.8980,-0.1436,-0.1771,9.8815,3.5798,-4.9531,-5.1637,-1.2893,1.8553,-59.0839,97074.0234,31.9136,0.7374,0.0072,-0.6752,-0.0176,-5.1637,0.0000,0.0000,0.0000,0.0000,384.3456,0.0000,3.2000,134733.0000,12.5216,55.6721,b'N',b'E',b'A',b'A',0.0000
1,3,2.9290,-0.0383,0.1005,9.6231,9.7444,-7.9438,-19.3240,-1.3207,2.0125,-59.9786,97078.5078,31.9613,0.7354,0.0007,-0.6769,-0.0312,-19.3240,0.0000,0.0000,0.0000,0.0000,383.9902,0.0000,3.2000,134733.0000,12.5216,55.6721,b'N',b'E',b'A',b'A',0.0000
1,3,2.9600,0.0239,0.1196,9.6279,7.7913,17.0199,-17.2488,-1.1949,1.6980,-58.7086,97080.5859,31.9448,0.7378,-0.0034,-0.6737,-0.0417,-17.2488,0.0000,0.0000,0.0000,0.0000,383.7761,0.0000,3.2000,134733.0000,12.5216,55.6721,b'N',b'E',b'A',b'A',0.0000
1,3,2.9920,-0.1675,0.1196,9.8432,14.2000,12.1981,-19.2020,-1.3521,1.6980,-61.1909,97074.2266,32.0755,0.7391,-0.0108,-0.6711,-0.0561,-19.2020,0.0000,0.0000,0.0000,0.0000,384.5310,0.0000,3.2000,134733.0000,12.5216,55.6721,b'N',b'E',b'A',b'A',0.0000
1,3,3.0240,0.0574,0.0479,9.8719,19.0829,9.1463,-20.2396,-1.1635,1.8553,-61.0755,97079.9141,32.0108,0.7398,-0.0077,-0.6701,-0.0605,-20.2396,0.0000,0.0000,0.0000,0.0000,383.9218,0.0000,3.2000,134733.0000,12.5216,55.6721,b'N',b'E',b'A',b'A',0.0000
1,3,3.0550,0.1436,0.0000,9.7571,-9.8482,-9.0425,5.8228,-1.4150,1.7295,-60.2961,97073.6172,31.9994,0.7377,-0.0107,-0.6724,-0.0599,5.8228,0.0000,0.0000,0.0000,0.0000,384.4917,0.0000,3.2000,134733.0000,12.5216,55.6721,b'N',b'E',b'A',b'A',0.0000
1,3,3.0870,0.1579,-0.1483,9.6997,-13.0831,-7.8218,7.8981,-1.1320,1.9811,-59.7766,97078.5000,32.0562,0.7362,-0.0095,-0.6745,-0.0544,7.8981,0.0000,0.0000,0.0000,0.0000,384.1096,0.0000,3.2000,134733.0000,12.5216,55.6721,b'N',b'E',b'A',b'A',0.0000
1,3,3.1190,-0.0718,-0.1436,9.9963,-16.2570,18.7900,-10.1686,-1.4779,1.8238,-61.1043,97076.8594,32.0381,0.7397,0.0018,-0.6713,-0.0468,-10.1686,0.0000,0.0000,0.0000,0.0000,384.2391,0.0000,3.2000,134733.0000,12.5216,55.6721,b'N',b'E',b'A',b'A',0.0000
1,3,3.1500,0.0622,-0.0431,9.5992,10.4768,-12.8878,16.0769,-1.3836,2.0754,-59.4591,97073.8594,31.9981,0.7371,0.0050,-0.6748,-0.0365,16.0769,0.0000,0.0000,0.0000,0.0000,384.4675,0.0000,3.2000,134733.0000,12.5216,55.6721,b'N',b'E',b'A',b'A',0.0000
1,3,3.1820,-0.1196,0.0957,9.6231,-5.6977,8.5359,6.7994,-1.2893,2.0754,-58.8818,97077.6953,31.9849,0.7381,-0.0110,-0.6728,-0.0493,6.7994,0.0000,0.0000,0.0000,0.0000,384.0950,0.0000,3.2000,134734.0000,12.5216,55.6721,b'N',b'E',b'A',b'A',0.0000
1,3,3.2140,0.0670,-0.1196,9.8911,-5.2094,13.7240,-5.3468,-1.2893,1.7295,-59.1993,97072.6562,32.0697,0.7404,-0.0035,-0.6707,-0.0435,-5.3468,0.0000,0.0000,0.0000,0.0000,384.6699,0.0000,3.2000,134734.0000,12.5216,55.6721,b'N',b'E',b'A',b'A',0.0000
1,3,3.2460,-0.1053,0.1818,9.9820,-13.2052,-5.3803,-12.1218,-1.1635,1.8553,-60.1807,97072.6641,31.9382,0.7385,-0.0165,-0.6714,-0.0600,-12.1218,0.0000,0.0000,0.0000,0.0000,384.5031,0.0000,3.2000,134734.0000,12.5216,55.6721,b'N',b'E',b'A',b'A',0.0000
1,3,3.2770,0.1436,-0.0479,9.6470,-13.6324,21.4755,-4.3702,-1.3521,1.7924,-60.4693,97082.0000,32.0699,0.7419,-0.0155,-0.6676,-0.0601,-4.3702,0.0000,0.0000,0.0000,0.0000,383.8028,0.0000,3.2000,134734.0000,12.5216,55.6721,b'N',b'E',b'A',b'A',0.0000
1,3,3.3100,-0.1914,0.0718,9.9916,17.3129,-3.8544,7.4708,-1.1320,1.8553,-59.3148,97077.1250,32.0634,0.7404,-0.0275,-0.6680,-0.0690,7.4708,0.0000,0.0000,0.0000,0.0000,384.2462,0.0000,3.2000,134734.0000,12.5216,55.6721,b'N',b'E',b'A',b'A',0.0000
1,3,3.3410,-0.0383,-0.1340,9.6709,5.5940,13.6019,-20.2396,-1.3521,1.8553,-59.3436,97074.5859,31.9696,0.7430,-0.0106,-0.6665,-0.0601,-20.2396,0.0000,0.0000,0.0000,0.0000,384.3637,0.0000,3.2000,134734.0000,12.5216,55.6721,b'N',b'E',b'A',b'A',0.0000
1,3,3.3730,-0.0909,-0.0670,9.6375,-16.9284,18.4237,16.8093,-1.1949,1.9496,-58.1025,97079.6172,32.0585,0.7469,-0.0030,-0.6633,-0.0460,16.8093,0.0000,0.0000,0.0000,0.0000,384.0096,0.0000,3.2000,134734.0000,12.5216,55.6721,b'N',b'E',b'A',b'A',0.0000
1,3,3.4050,-0.1818,-0.1483,9.7954,-4.1108,7.1321,8.3253,-1.1949,1.8238,-59.5168,97072.8047,32.0074,0.7485,0.0084,-0.6624,-0.0314,8.3253,0.0000,0.0000,0.0000,0.0000,384.5770,0.0000,3.2000,134734.0000,12.5216,55.6721,b'N',b'E',b'A',b'A',0.0000
1,3,3.4360,0.1771,0.0622,9.8719,-1.6693,12.8084,-14.1360,-1.3521,2.0439,-58.2468,97081.7188,32.0172,0.7500,0.0082,-0.6604,-0.0363,-14.1360,0.0000,0.0000,0.0000,0.0000,383.7622,0.0000,3.2000,134734.0000,12.5216,55.6721,b'N',b'E',b'A',b'A',0.0000
1,3,3.4680,-0.1483,0.0766,9.7667,16.0922,-9.3477,17.4197,-1.1635,1.9811,-60.5848,97075.9922,32.0630,0.7479,-0.0058,-0.6624,-0.0436,17.4197,0.0000,0.0000,0.0000,0.0000,384.3517,0.0000,3.2000,134734.0000,12.5216,55.6721,b'N',b'E',b'A',b'A',0.0000
1,3,3.5000,-0.1627,0.1627,9.6709,12.6131,-0.5585,-9.7414,-1.1949,1.7924,-60.0364,97077.8984,32.0386,0.7469,-0.0146,-0.6624,-0.0559,-9.7414,0.0000,0.0000,0.0000,0.0000,384.1441,0.0000,3.2000,134734.0000,12.5216,55.6721,b'N',b'E',b'A',b'A',0.0000
1,3,3.5320,-0.1436,-0.1005,9.6183,10.1717,-2.0844,-3.1495,-1.2893,1.7609,-61.1043,97073.9297,31.9278,0.7468,0.0018,-0.6637,-0.0409,-3.1495,0.0000,0.0000,0.0000,0.0000,384.3727,0.0000,3.2000,134734.0000,12.5216,55.6721,b'N',b'E',b'A',b'A',0.0000
1,3,3.5630,-0.1962,0.1723,9.8049,-13.3883,2.0050,-13.7697,-1.1949,1.7609,-58.0736,97072.5000,32.0537,0.7463,-0.0120,-0.6629,-0.0591,-13.7697,0.0000,0.0000,0.0000,0.0000,384.6642,0.0000,3.2000,134734.0000,12.5216,55.6721,b'N',b'E',b'A',b'A',0.0000
1,3,3.5950,-0.1196,-0.0526,9.8528,-2.4018,14.3343,16.7483,-1.2578,1.7924,-60.9600,97075.1016,31.9215,0.7496,-0.0010,-0.6606,-0.0420,16.7483,0.0000,0.0000,0.0000,0.0000,384.2558,0.0000,3.2000,34138.0000,-105.1125,39.8980,b'N',b'W',b'A',b'A',0.0000
1,3,3.6260,0.1675,-0.0574,9.7571,-9.4820,-0.7416,-14.2580,-1.2264,1.9182,-60.4693,97076.0391,31.9689,0.7486,0.0020,-0.6615,-0.0435,-14.2580,0.0000,0.0000,0.0000,0.0000,384.2280,0.0000,3.2000,34138.0000,-105.1125,39.8980,b'N',b'W',b'A',b'A',0.0000
1,3,3.6580,-0.1771,-0.0861,9.8959,8.0354,-0.6806,6.3722,-1.2578,2.0439,-60.3827,97075.5781,31.9529,0.7487,0.0166,-0.6622,-0.0267,6.3722,0.0000,0.0000,0.0000,0.0000,384.2511,0.0000,3.2000,34138.0000,-105.1125,39.8980,b'N',b'W',b'A',b'A',0.0000
1,3,3.6900,0.0670,0.0191,9.6709,12.4300,-10.3243,-7.5441,-1.1006,1.7924,-58.4200,97075.0078,32.0044,0.7459,0.0181,-0.6652,-0.0275,-7.5441,0.0000,0.0000,0.0000,0.0000,384.3685,0.0000,3.2000,34138.0000,-105.1125,39.8980,b'N',b'W',b'A',b'A',0.0000
1,3,3.7220,-0.1866,-0.1244,9.6805,13.1624,11.7708,-5.2857,-1.1635,2.0439,-61.1909,97080.3750,31.9260,0.7477,0.0357,-0.6629,-0.0123,-5.2857,0.0000,0.0000,0.0000,0.0000,383.7720,0.0000,3.2000,34138.0000,-105.1125,39.8980,b'N',b'W',b'A',b'A',0.0000
1,3,3.7540,-0.1818,-0.1866,9.9485,19.0829,6.2165,-21.7655,-1.2578,1.8553,-60.1807,97076.0312,32.0174,0.7479,0.0567,-0.6614,-0.0001,-21.7655,0.0000,0.0000,0.0000,0.0000,384.2902,0.0000,3.2000,34138.0000,-105.1125,39.8980,b'N',b'W',b'A',b'A',0.0000
1,3,3.7860,0.0526,0.1531,9.6518,-10.6416,-8.4932,9.2409,-1.3207,1.9811,-58.3334,97072.0391,32.0948,0.7462,0.0436,-0.6642,-0.0085,9.2409,0.0000,0.0000,0.0000,0.0000,384.7581,0.0000,3.2000,202725.0000,-114.0307,51.1504,b'N',b'W',b'A',b'A',0.0000
1,3,3.8180,-0.1148,0.0144,9.7954,10.0496,4.8737,14.0017,-1.4150,2.0439,-58.9973,97081.3984,32.0321,0.7473,0.0286,-0.6636,-0.0180,14.0017,0.0000,0.0000,0.0000,0.0000,383.8108,0.0000,3.2000,202725.0000,-114.0307,51.1504,b'N',b'W',b'A',b'A',0.0000
1,3,3.8500,0.1005,0.1483,9.6662,-6.7964,4.2023,16.0159,-1.4150,1.8238,-60.4693,97077.0000,32.0355,0.7476,0.0171,-0.6635,-0.0221,16.0159,0.0000,0.0000,0.0000,0.0000,384.2234,0.0000,3.2000,202725.0000,-114.0307,51.1504,b'N',b'W',b'A',b'A',0.0000
1,3,3.8820,0.0957,-0.1292,9.6231,-8.6274,7.8035,13.0251,-1.2264,1.8867,-59.2282,97078.0156,31.9768,0.7485,0.0192,-0.6626,-0.0143,13.0251,0.0000,0.0000,0.0000,0.0000,384.0549,0.0000,3.2000,202725.0000,-114.0307,51.1504,b'N',b'W',b'A',b'A',0.0000
1,3,3.9140,0.0239,0.1627,9.9054,-18.7594,-4.2206,2.4659,-1.1949,1.7295,-58.6798,97073.6953,31.9492,0.7473,0.0053,-0.6640,-0.0261,2.4659,0.0000,0.0000,0.0000,0.0000,384.4213,0.0000,3.2000,202725.0000,-114.0307,51.1504,b'N',b'W',b'A',b'A',0.0000
1,3,3.9450,-0.0287,-0.0239,9.6375,4.8615,0.1129,12.1096,-1.1320,2.0125,-61.3064,97075.0781,31.9806,0.7472,0.0176,-0.6643,-0.0091,12.1096,0.0000,0.0000,0.0000,0.0000,384.3323,0.0000,3.2000,202725.0000,-114.0307,51.1504,b'N',b'W',b'A',b'A',0.0000
1,3,3.9770,0.1723,0.1579,9.7714,8.4016,16.2875,6.1280,-1.2893,1.9496,-59.7766,97078.4531,31.9090,0.7495,0.0127,-0.6618,-0.0112,6.1280,0.0000,0.0000,0.0000,0.0000,383.9296,0.0000,3.2000,202725.0000,-114.0307,51.1504,b'N',b'W',b'A',b'A',0.0000
1,3,4.0080,0.1771,0.0479,9.9389,-14.6090,-2.9999,-5.6519,-1.3207,1.7924,-60.2384,97072.6328,31.9261,0.7483,0.0086,-0.6631,-0.0165,-5.6519,0.0000,0.0000,0.0000,0.0000,384.4909,0.0000,3.2000,134730.3594,12.5214,55.6720,b'N',b'E',b'A',b'A',0.0000
1,3,4.0400,-0.0239,-0.1531,9.7714,-10.7637,17.0199,-13.1594,-1.1006,1.8238,-59.2859,97073.2344,32.0873,0.7509,0.0197,-0.6600,-0.0102,-13.1594,0.0000,0.0000,0.0000,0.0000,384.6375,0.0000,3.2000,134730.3594,12.5214,55.6720,b'N',b'E',b'A',b'A',0.0000
1,3,4.0710,-0.0861,-0.0766,9.8671,12.0027,17.3251,-0.8301,-1.1006,1.9496,-59.8632,97074.8438,32.0487,0.7534,0.0357,-0.6565,0.0053,-0.8301,0.0000,0.0000,0.0000,0.0000,384.4397,0.0000,3.2000,134730.3594,12.5214,55.6720,b'N',b'E',b'A',b'A',0.0000
1,3,4.1030,-0.0287,-0.1866,9.6135,-11.5572,-2.5116,-15.0515,-1.1635,2.0439,-61.4795,97079.3984,31.9382,0.7522,0.0464,-0.6572,0.0108,-15.0515,0.0000,0.0000,0.0000,0.0000,383.8778,0.0000,3.2000,134730.3594,12.5214,55.6720,b'N',b'E',b'A',b'A',0.0000
1,3,4.1340,0.0766,-0.0287,9.6135,-7.7119,-4.8920,5.5787,-1.2893,2.0754,-61.2198,97075.7969,31.9425,0.7505,0.0455,-0.6591,0.0128,5.5787,0.0000,0.0000,0.0000,0.0000,384.2175,0.0000,3.2000,134730.3594,12.5214,55.6720,b'N',b'E',b'A',b'A',0.0000
1,3,4.1660,-0.1005,-0.1771,9.9246,10.3548,20.1938,6.5553,-1.2264,2.0754,-59.5457,97078.2344,32.0406,0.7529,0.0583,-0.6549,0.0283,6.5553,0.0000,0.0000,0.0000,0.0000,384.1146,0.0000,3.2000,134730.3594,12.5214,55.6720,b'N',b'E',b'A',b'A',0.0000
1,3,4.1970,0.1340,-0.0144,9.8528,-10.5196,10.3059,16.1379,-1.3521,1.7609,-58.6220,97080.8594,31.9121,0.7539,0.0529,-0.6541,0.0300,16.1379,0.0000,0.0000,0.0000,0.0000,383.7102,0.0000,3.2000,134731.3594,12.5216,55.6721,b'N',b'E',b'A',b'A',0.0000
1,3,4.2280,-0.1818,-0.0861,9.6422,-18.8815,15.4330,-19.7513,-1.1006,1.6980,-60.3539,97074.6016,31.9372,0.7559,0.0662,-0.6503,0.0366,-19.7513,0.0000,0.0000,0.0000,0.0000,384.3218,0.0000,3.2000,134731.3594,12.5216,55.6721,b'N',b'E',b'A',b'A',0.0000
1,3,4.2590,0.1531,-0.1818,9.6949,-10.8858,-2.0233,-15.9670,-1.1635,2.0125,-59.2282,97080.0078,32.0137,0.7548,0.0716,-0.6510,0.0367,-15.9670,0.0000,0.0000,0.0000,0.0000,383.9163,0.0000,3.2000,134731.3594,12.5216,55.6721,b'N',b'E',b'A',b'A',0.0000
1,3,4.2900,-0.1914,-0.1053,9.8384,-4.3549,0.5402,-13.8308,-1.3836,1.8553,-58.8241,97072.2969,32.0550,0.7537,0.0867,-0.6498,0.0466,-13.8308,0.0000,0.0000,0.0000,0.0000,384.6842,0.0000,3.2000,134731.3594,12.5216,55.6721,b'N',b'E',b'A',b'A',0.0000
1,3,4.3220,0.0861,0.0383,9.7044,-16.8063,-16.0616,11.2551,-1.4779,2.0125,-60.4116,97077.0234,31.9018,0.7506,0.0769,-0.6550,0.0417,11.2551,0.0000,0.0000,0.0000,0.0000,384.0530,0.0000,3.2000,134731.3594,12.5216,55.6721,b'N',b'E',b'A',b'A',0.0000
1,3,4.3530,-0.1196,-0.0526,9.7619,-18.2712,2.1271,-14.0139,-1.3207,1.7609,-58.6798,97077.7734,31.9865,0.7500,0.0893,-0.6535,0.0492,-14.0139,0.0000,0.0000,0.0000,0.0000,384.0898,0.0000,3.2000,134731.3594,12.5216,55.6721,b'N',b'E',b'A',b'A',0.0000
1,3,4.3850,0.1531,-0.0574,9.9676,15.2987,16.1654,-21.8265,-1.3836,1.7924,-61.2486,97073.1250,32.0270,0.7518,0.0966,-0.6504,0.0495,-21.8265,0.0000,0.0000,0.0000,0.0000,384.5718,0.0000,3.2000,134731.3594,12.5216,55.6721,b'N',b'E',b'A',b'A',0.0000
1,3,4.4160,0.1771,-0.0813,9.9676,-3.6225,19.7665,-3.2715,-1.1006,1.6980,-58.7952,97073.4688,31.9917,0.7545,0.0973,-0.6470,0.0507,-3.2715,0.0000,0.0000,0.0000,0.0000,384.4955,0.0000,2.6000,134731.3594,12.5216,55.6721,b'N',b'E',b'A',b'A',0.0000
1,3,4.4480,0.0431,0.0000,9.7762,-12.4117,4.3854,-5.5299,-1.2893,1.8867,-59.0839,97076.7109,32.0547,0.7549,0.0938,-0.6475,0.0466,-5.5299,0.0000,0.0000,0.0000,0.0000,384.2744,0.0000,2.6000,134731.3594,12.5216,55.6721,b'N',b'E',b'A',b'A',0.0000
1,3,4.4790,0.0431,-0.0813,9.8384,13.8338,-14.4137,16.0769,-1.4465,1.6980,-58.3045,97080.5234,32.0359,0.7503,0.0996,-0.6509,0.0582,16.0769,0.0000,0.0000,0.0000,0.0000,383.8968,0.0000,2.6000,134731.3594,12.5216,55.6721,b'N',b'E',b'A',b'A',0.0000
1,3,4.5100,-0.1436,0.0144,9.6135,-14.1207,-12.8878,2.5269,-1.4465,1.9811,-60.7291,97073.8750,32.0538,0.7498,0.0820,-0.6553,0.0416,2.5269,0.0000,0.0000,0.0000,0.0000,384.5366,0.0000,2.6000,134731.3594,12.5216,55.6721,b'N',b'E',b'A',b'A',0.0000
1,3,4.5420,-0.0191,0.0239,9.7236,6.6316,3.6530,8.3864,-1.2264,1.9182,-60.5559,97074.9375,32.0198,0.7510,0.0683,-0.6560,0.0314,8.3864,0.0000,0.0000,0.0000,0.0000,384.3951,0.0000,2.6000,134731.3594,12.5216,55.6721,b'N',b'E',b'A',b'A',0.0000
1,3,4.5740,-0.0526,0.0479,9.6183,-7.3457,4.8737,-4.1871,-1.3836,1.7609,-59.3148,97080.0703,31.9763,0.7526,0.0536,-0.6561,0.0158,-4.1871,0.0000,0.0000,0.0000,0.0000,383.8640,0.0000,2.6000,134731.3594,12.5216,55.6721,b'N',b'E',b'A',b'A',0.0000
1,3,4.6060,0.1101,-0.1244,9.9628,-13.6324,12.4422,-2.4781,-1.1635,1.9182,-61.4507,97074.2109,32.0484,0.7540,0.0561,-0.6542,0.0185,-2.4781,0.0000,0.0000,0.0000,0.0000,384.4980,0.0000,2.6000,134732.0000,12.5216,55.6721,b'N',b'E',b'A',b'A',0.0000
1,3,4.6370,-0.0431,0.1771,9.7092,-1.6693,-5.1972,11.0109,-1.3836,1.7924,-61.8259,97074.1875,31.9202,0.7531,0.0418,-0.6565,0.0091,11.0109,0.0000,0.0000,0.0000,0.0000,384.3385,0.0000,2.6000,134732.0000,12.5216,55.6721,b'N',b'E',b'A',b'A',0.0000
1,3,4.6690,-0.1866,-0.1388,9.7667,-13.0220,15.9823,12.3537,-1.3836,1.9182,-58.9973,97077.3125,32.0968,0.7553,0.0503,-0.6531,0.0229,12.3537,0.0000,0.0000,0.0000,0.0000,384.2719,0.0000,2.6000,134732.0000,12.5216,55.6721,b'N',b'E',b'A',b'A',0.0000
1,3,4.7010,0.1053,0.0670,9.8289,16.8856,21.7807,-19.0799,-1.1949,2.0125,-61.1620,97080.7578,32.0473,0.7584,0.0519,-0.6495,0.0179,-19.0799,0.0000,0.0000,0.0000,0.0000,383.8895,0.0000,2.6000,134732.0000,12.5216,55.6721,b'N',b'E',b'A',b'A',0.0000
1,3,4.7320,0.1914,0.0813,9.5992,15.2377,-4.2817,-20.2396,-1.1320,2.0125,-59.7189,97080.6328,31.9390,0.7568,0.0546,-0.6512,0.0133,-20.2396,0.0000,0.0000,0.0000,0.0000,383.7646,0.0000,2.6000,134732.0000,12.5216,55.6721,b'N',b'E',b'A',b'A',0.0000
1,3,4.7640,-0.1340,0.1579,9.7236,-16.5621,0.5402,-21.2161,-1.2264,1.8238,-60.7580,97075.2500,32.0226,0.7574,0.0414,-0.6516,-0.0074,-21.2161,0.0000,0.0000,0.0000,0.0000,384.3698,0.0000,2.6000,134732.0000,12.5216,55.6721,b'N',b'E',b'A',b'A',0.0000
1,3,4.7960,-0.1005,0.1244,9.8624,-4.7822,14.7005,-14.9905,-1.2578,1.7295,-61.1043,97081.3203,32.0806,0.7598,0.0297,-0.6490,-0.0238,-14.9905,0.0000,0.0000,0.0000,0.0000,383.8790,0.0000,2.6000,134732.0000,12.5216,55.6721,b'N',b'E',b'A',b'A',0.0000
1,3,4.8270,-0.0813,0.0718,9.6327,16.1532,18.9120,0.5737,-1.1006,1.8553,-58.9684,97074.3750,32.0606,0.7627,0.0194,-0.6456,-0.0338,0.5737,0.0000,0.0000,0.0000,0.0000,384.4989,0.0000,2.6000,134732.0000,12.5216,55.6721,b'N',b'E',b'A',b'A',0.0000
1,3,4.8590,0.0526,0.1723,9.8241,12.5521,19.0951,4.9683,-1.4465,1.6980,-61.9702,97078.3828,32.0849,0.7652,0.0125,-0.6425,-0.0382,4.9683,0.0000,0.0000,0.0000,0.0000,384.1571,0.0000,2.6000,134732.0000,12.5216,55.6721,b'N',b'E',b'A',b'A',0.0000
1,3,4.8910,-0.1483,-0.1101,9.9963,11.5145,-12.7657,1.0010,-1.4150,1.8553,-60.5270,97080.0625,32.0361,0.7627,0.0283,-0.6458,-0.0223,1.0010,0.0000,0.0000,0.0000,0.0000,383.9403,0.0000,2.6000,134732.0000,12.5216,55.6721,b'N',b'E',b'A',b'A',0.0000
1,3,4.9230,-0.1436,-0.1627,9.7236,6.6316,1.6388,15.9548,-1.3521,1.8238,-58.0159,97072.7969,32.0450,0.7624,0.0399,-0.6459,-0.0048,15.9548,0.0000,0.0000,0.0000,0.0000,384.6254,0.0000,2.6000,134732.0000,12.5216,55.6721,b'N',b'E',b'A',b'A',0.0000
1,3,4.9540,-0.0957,0.1675,9.6375,-17.5998,-4.6479,14.4900,-1.3521,1.9182,-58.4777,97074.7812,31.9031,0.7614,0.0207,-0.6477,-0.0171,14.4900,0.0000,0.0000,0.0000,0.0000,384.2624,0.0000,2.6000,134732.0000,12.5216,55.6721,b'N',b'E',b'A',b'A',0.0000
1,3,4.9860,-0.0957,0.0096,9.9485,-16.5621,8.6580,-3.0274,-1.2578,1.9496,-58.4200,97075.3047,32.0103,0.7628,0.0033,-0.6456,-0.0350,-3.0274,0.0000,0.0000,0.0000,0.0000,384.3491,0.0000,2.6000,134732.0000,12.5216,55.6721,b'N',b'E',b'A',b'A',0.0000
1,3,5.0180,-0.1627,-0.0287,9.9102,-16.0739,13.2967,-13.3425,-1.4465,1.9496,-59.4880,97074.7578,31.9099,0.7653,0.0169,-0.6430,-0.0264,-13.3425,0.0000,0.0000,0.0000,0.0000,384.2731,0.0000,3.2000,134732.0000,12.5216,55.6721,b'N',b'E',b'A',b'A',0.0000
1,3,5.0500,-0.1723,0.1675,9.6183,8.2795,4.7517,-20.2396,-1.1006,1.8238,-58.7086,97078.7734,32.0619,0.7654,0.0087,-0.6422,-0.0421,-20.2396,0.0000,0.0000,0.0000,0.0000,384.0921,0.0000,3.2000,134732.0000,12.5216,55.6721,b'N',b'E',b'A',b'A',0.0000
1,3,5.0820,0.1340,0.0383,9.6087,5.7160,8.2918,-8.2155,-1.4465,1.7609,-58.8241,97076.0703,31.9693,0.7656,0.0092,-0.6417,-0.0439,-8.2155,0.0000,0.0000,0.0000,0.0000,384.2266,0.0000,3.2000,134732.0000,12.5216,55.6721,b'N',b'E',b'A',b'A',0.0000
1,3,5.1140,0.0574,0.1627,9.6997,-9.6040,19.2782,-21.7044,-1.2578,1.9182,-61.6239,97073.8203,31.9483,0.7677,0.0028,-0.6383,-0.0575,-21.7044,0.0000,0.0000,0.0000,0.0000,384.4088,0.0000,3.2000,134732.0000,12.5216,55.6721,b'N',b'E',b'A',b'A',0.0000
1,3,5.1450,0.0957,0.0861,9.6853,-5.0263,21.9028,10.5226,-1.1949,1.9496,-58.8530,97079.3047,31.9182,0.7703,-0.0048,-0.6348,-0.0601,10.5226,0.0000,0.0000,0.0000,0.0000,383.8619,0.0000,3.2000,134732.0000,12.5216,55.6721,b'N',b'E',b'A',b'A',0.0000
1,3,5.1760,-0.1627,0.1866,9.7714,-15.5245,-5.3193,-14.8684,-1.3521,1.8238,-61.0755,97079.9688,31.9104,0.7679,-0.0187,-0.6355,-0.0783,-14.8684,0.0000,0.0000,0.0000,0.0000,383.7903,0.0000,3.2000,134732.0000,12.5216,55.6721,b'N',b'E',b'A',b'A',0.0000
1,3,5.2080,0.1866,0.0479,9.8193,12.1859,-8.7373,-12.9763,-1.2578,2.0439,-60.0652,97072.3984,32.0689,0.7650,-0.0155,-0.6390,-0.0791,-12.9763,0.0000,0.0000,0.0000,0.0000,384.6925,0.0000,3.2000,134733.0000,12.5216,55.6721,b'N',b'E',b'A',b'A',0.0000
1,3,5.2400,0.1483,-0.1148,9.8241,12.9183,-10.9956,-1.6236,-1.3207,2.0754,-61.6239,97080.6172,31.9385,0.7626,-0.0079,-0.6429,-0.0712,-1.6236,0.0000,0.0000,0.0000,0.0000,383.7661,0.0000,3.2000,134733.0000,12.5216,55.6721,b'N',b'E',b'A',b'A',0.0000
1,3,5.2710,-0.1292,-0.0861,9.7619,-12.8389,14.9447,0.8179,-1.1635,1.6980,-61.5950,97073.3516,32.0075,0.7657,0.0034,-0.6405,-0.0593,0.8179,0.0000,0.0000,0.0000,0.0000,384.5266,0.0000,3.2000,134733.0000,12.5216,55.6721,b'N',b'E',b'A',b'A',0.0000
1,3,5.3030,0.1292,-0.1723,9.9820,19.8154,-10.2022,-18.1033,-1.2264,1.7609,-60.0364,97075.6875,32.0329,0.7630,0.0167,-0.6441,-0.0523,-18.1033,0.0000,0.0000,0.0000,0.0000,384.3416,0.0000,3.2000,134733.0000,12.5216,55.6721,b'N',b'E',b'A',b'A',0.0000
1,3,5.3340,-0.1818,0.0287,9.8719,-2.9511,-9.5308,-9.6193,-1.3521,1.9182,-60.4116,97075.1406,31.9622,0.7605,0.0031,-0.6457,-0.0690,-9.6193,0.0000,0.0000,0.0000,0.0000,384.3029,0.0000,3.2000,134733.0000,12.5216,55.6721,b'N',b'E',b'A',b'A',0.0000
1,3,5.3660,-0.0813,0.1627,9.6087,11.1482,-14.8409,3.3814,-1.3207,1.7924,-59.2570,97080.5156,31.9846,0.7568,-0.0078,-0.6489,-0.0777,3.3814,0.0000,0.0000,0.0000,0.0000,383.8333,0.0000,3.2000,134733.0000,12.5216,55.6721,b'N',b'E',b'A',b'A',0.0000
1,3,5.3970,0.1627,0.1866,9.8289,11.3313,-6.5400,-16.8826,-1.3836,1.6980,-61.7682,97072.2031,32.0864,0.7543,-0.0083,-0.6512,-0.0835,-16.8826,0.0000,0.0000,0.0000,0.0000,384.7321,0.0000,3.2000,134733.0000,12.5216,55.6721,b'N',b'E',b'A',b'A',0.0000
1,3,5.4290,0.1723,-0.1292,9.8959,19.6933,-12.6436,-1.0742,-1.4465,1.8553,-61.4218,97080.3594,32.0851,0.7516,0.0003,-0.6554,-0.0742,-1.0742,0.0000,0.0000,0.0000,0.0000,383.9742,0.0000,3.2000,134733.0000,12.5216,55.6721,b'N',b'E',b'A',b'A',0.0000
1,3,5.4610,0.0718,-0.0526,9.8767,6.3874,-11.3008,-19.3851,-1.3836,1.9496,-60.1230,97076.7109,32.0484,0.7487,0.0093,-0.6591,-0.0713,-19.3851,0.0000,0.0000,0.0000,0.0000,384.2665,0.0000,3.2000,134733.0000,12.5216,55.6721,b'N',b'E',b'A',b'A',0.0000
1,3,5.4930,0.0526,-0.0813,9.7523,-11.5572,14.8836,-11.6945,-1.3207,1.6980,-59.6034,97080.7344,31.9990,0.7507,0.0160,-0.6569,-0.0676,-11.6945,0.0000,0.0000,0.0000,0.0000,383.8308,0.0000,3.2000,134733.0000,12.5216,55.6721,b'N',b'E',b'A',b'A',0.0000
1,3,5.5240,-0.1914,0.0239,9.6470,-19.1257,-5.3193,-13.8918,-1.2264,1.9496,-61.5084,97081.4531,31.9631,0.7488,-0.0001,-0.6570,-0.0879,-13.8918,0.0000,0.0000,0.0000,0.0000,383.7189,0.0000,3.2000,134733.0000,12.5216,55.6721,b'N',b'E',b'A',b'A',0.0000
1,3,5.5560,0.1053,0.1244,9.6422,8.0354,16.5316,-12.9152,-1.1949,1.6980,-58.8530,97074.6875,31.9758,0.7505,-0.0017,-0.6543,-0.0934,-12.9152,0.0000,0.0000,0.0000,0.0000,384.3622,0.0000,3.2000,134733.0000,12.5216,55.6721,b'N',b'E',b'A',b'A',0.0000
1,3,5.5870,-0.1675,-0.0239,9.9198,7.9744,-4.6479,-15.4788,-1.1635,1.8238,-60.1230,97074.8125,31.9344,0.7500,0.0172,-0.6562,-0.0809,-15.4788,0.0000,0.0000,0.0000,0.0000,384.2987,0.0000,3.2000,134733.0000,12.5216,55.6721,b'N',b'E',b'A',b'A',0.0000
1,3,5.6190,0.0000,0.1531,9.7044,-10.2754,-4.7700,-7.2999,-1.0691,2.0439,-60.9023,97073.2812,31.9019,0.7480,0.0059,-0.6572,-0.0930,-7.2999,0.0000,0.0000,0.0000,0.0000,384.3997,0.0000,3.2000,134733.0000,12.5216,55.6721,b'N',b'E',b'A',b'A',0.0000
1,3,5.6510,-0.0766,0.0526,9.8671,15.8480,9.3294,-0.2808,-1.1949,1.7609,-58.5355,97074.8438,32.0726,0.7485,-0.0043,-0.6551,-0.1031,-0.2808,0.0000,0.0000,0.0000,0.0000,384.4697,0.0000,3.2000,134734.0000,12.5216,55.6721,b'N',b'E',b'A',b'A',0.0000
1,3,5.6830,-0.0191,0.1483,9.8528,-13.5103,21.7197,11.4382,-1.1635,2.0125,-59.8632,97077.1484,31.9276,0.7513,-0.0193,-0.6500,-0.1123,11.4382,0.0000,0.0000,0.0000,0.0000,384.0732,0.0000,3.2000,134734.0000,12.5216,55.6721,b'N',b'E',b'A',b'A',0.0000
1,3,5.7150,0.1866,0.1579,9.8289,7.5471,-10.2632,-11.3283,-1.2578,1.7295,-59.7477,97077.1250,32.0050,0.7482,-0.0207,-0.6529,-0.1159,-11.3283,0.0000,0.0000,0.0000,0.0000,384.1727,0.0000,3.2000,134734.0000,12.5216,55.6721,b'N',b'E',b'A',b'A',0.0000
1,3,5.7460,-0.1675,0.1723,9.6327,14.2000,16.3485,-16.6995,-1.3521,2.0125,-61.8836,97074.6797,32.0799,0.7491,-0.0273,-0.6493,-0.1287,-16.6995,0.0000,0.0000,0.0000,0.0000,384.4944,0.0000,3.2000,134734.0000,12.5216,55.6721,b'N',b'E',b'A',b'A',0.0000
1,3,5.7780,-0.1866,0.0766,9.8384,18.3505,-13.5592,-21.9486,-1.1320,1.7295,-60.6425,97076.0312,32.0270,0.7441,-0.0341,-0.6516,-0.1430,-21.9486,0.0000,0.0000,0.0000,0.0000,384.3023,0.0000,3.2000,134734.0000,12.5216,55.6721,b'N',b'E',b'A',b'A',0.0000
1,3,5.8100,0.1244,0.0431,9.7858,11.3313,15.6771,-4.1260,-1.1635,1.7924,-61.4218,97079.8750,31.9881,0.7460,-0.0322,-0.6499,-0.1415,-4.1260,0.0000,0.0000,0.0000,0.0000,383.8963,0.0000,3.2000,134734.0000,12.5216,55.6721,b'N',b'E',b'A',b'A',0.0000
1,3,5.8410,0.1771,0.1005,9.7427,6.7536,-8.8594,-9.5583,-1.1635,1.8238,-60.7002,97081.1641,31.9245,0.7432,-0.0325,-0.6528,-0.1429,-9.5583,0.0000,0.0000,0.0000,0.0000,383.6971,0.0000,3.2000,134734.0000,12.5216,55.6721,b'N',b'E',b'A',b'A',0.0000
1,3,5.8730,-0.0909,-0.0766,9.9198,3.5187,-3.4882,-16.3333,-1.3521,1.7295,-58.5643,97072.1484,31.9787,0.7434,-0.0152,-0.6556,-0.1316,-16.3333,0.0000,0.0000,0.0000,0.0000,384.6014,0.0000,3.2000,134734.0000,12.5216,55.6721,b'N',b'E',b'A',b'A',0.0000
1,3,5.9050,0.1579,-0.1101,9.6757,12.6131,16.3485,2.6490,-1.2264,2.0439,-59.8920,97077.3203,31.9188,0.7464,-0.0080,-0.6541,-0.1223,2.6490,0.0000,0.0000,0.0000,0.0000,384.0467,0.0000,3.2000,134734.0000,12.5216,55.6721,b'N',b'E',b'A',b'A',0.0000
1,3,5.9360,-0.0191,-0.0144,9.9054,-5.4536,13.6629,7.0436,-1.3207,1.8238,-61.0177,97076.0625,32.0860,0.7501,0.0037,-0.6525,-0.1077,7.0436,0.0000,0.0000,0.0000,0.0000,384.3735,0.0000,3.2000,134734.0000,12.5216,55.6721,b'N',b'E',b'A',b'A',0.0000
1,3,5.9680,-0.1005,-0.0239,9.6040,16.3363,16.5927,-16.0281,-1.1320,1.7609,-59.6611,97077.2734,31.9388,0.7534,0.0249,-0.6504,-0.0937,-16.0281,0.0000,0.0000,0.0000,0.0000,384.0760,0.0000,3.2000,134734.0000,12.5216,55.6721,b'N',b'E',b'A',b'A',0.0000
1,3,6.0000,-0.1005,-0.0335,9.7762,-7.2847,19.9496,2.2827,-1.1949,1.9496,-59.5745,97079.1562,31.9167,0.7576,0.0377,-0.6467,-0.0800,2.2827,0.0000,0.0000,0.0000,0.0000,383.8734,0.0000,3.2000,134734.0000,12.5216,55.6721,b'N',b'E',b'A',b'A',0.0000
1,3,6.0320,0.1818,0.1818,9.7619,2.2370,8.7190,16.5652,-1.1635,1.7295,-58.7086,97075.1562,32.0894,0.7586,0.0292,-0.6460,-0.0799,16.5652,0.0000,0.0000,0.0000,0.0000,384.4621,0.0000,3.2000,134734.0000,12.5216,55.6721,b'N',b'E',b'A',b'A',0.0000
1,3,6.0640,-0.1866,-0.0670,9.9772,-19.4919,6.0945,9.3629,-1.4779,2.0125,-60.4116,97080.3203,32.0539,0.7603,0.0380,-0.6450,-0.0671,9.3629,0.0000,0.0000,0.0000,0.0000,383.9380,0.0000,3.2000,34138.0000,-105.1125,39.8980,b'N',b'W',b'A',b'A',0.0000
1,3,6.0950,0.1627,-0.1148,9.6518,-18.5153,-7.3945,-10.3517,-1.2893,1.6980,-58.4777,97080.1797,32.0597,0.7583,0.0394,-0.6472,-0.0671,-10.3517,0.0000,0.0000,0.0000,0.0000,383.9586,0.0000,3.2000,34138.0000,-105.1125,39.8980,b'N',b'W',b'A',b'A',0.0000
1,3,6.1270,0.0144,0.0431,9.6183,8.2795,20.3769,-1.9287,-1.1320,2.0439,-60.4116,97076.3281,31.9236,0.7608,0.0328,-0.6441,-0.0730,-1.9287,0.0000,0.0000,0.0000,0.0000,384.1443,0.0000,3.2000,34138.0000,-105.1125,39.8980,b'N',b'W',b'A',b'A',0.0000
1,3,6.1580,-0.1053,-0.1388,9.8959,11.6365,9.4514,8.1422,-1.4779,1.8867,-61.1620,97075.4375,32.0343,0.7623,0.0467,-0.6431,-0.0558,8.1422,0.0000,0.0000,0.0000,0.0000,384.3670,0.0000,3.2000,34138.0000,-105.1125,39.8980,b'N',b'W',b'A',b'A',0.0000
1,3,6.1900,-0.1340,0.1483,9.9246,-14.1817,6.0334,-20.5447,-1.3836,1.7295,-59.4302,97081.6094,32.0489,0.7626,0.0338,-0.6417,-0.0748,-20.5447,0.0000,0.0000,0.0000,0.0000,383.8123,0.0000,3.2000,34138.0000,-105.1125,39.8980,b'N',b'W',b'A',b'A',0.0000
1,3,6.2220,-0.1579,0.0909,9.9533,-14.5480,18.4237,0.8179,-1.2264,1.9811,-59.9209,97076.5781,32.0093,0.7651,0.0168,-0.6373,-0.0904,0.8179,0.0000,0.0000,0.0000,0.0000,384.2296,0.0000,3.2000,34138.0000,-105.1125,39.8980,b'N',b'W',b'A',b'A',0.0000
1,3,6.2530,0.0574,0.1531,9.7475,3.8239,-11.7281,15.5276,-1.1949,1.8238,-59.9786,97074.9219,32.0791,0.7622,0.0061,-0.6406,-0.0930,15.5276,0.0000,0.0000,0.0000,0.0000,384.4708,0.0000,3.2000,202725.0000,-114.0307,51.1504,b'N',b'W',b'A',b'A',0.0000
1,3,6.2850,-0.0574,-0.0813,9.6997,-17.0504,0.0519,13.8796,-1.4150,1.8238,-58.7664,97072.9453,32.0581,0.7629,0.0130,-0.6415,-0.0796,13.8796,0.0000,0.0000,0.0000,0.0000,384.6275,0.0000,3.2000,202725.0000,-114.0307,51.1504,b'N',b'W',b'A',b'A',0.0000
1,3,6.3170,-0.1818,-0.0622,9.6183,0.5890,2.4323,5.2735,-1.1635,1.7924,-60.9600,97080.3047,32.0333,0.7639,0.0265,-0.6416,-0.0641,5.2735,0.0000,0.0000,0.0000,0.0000,383.9141,0.0000,3.2000,202725.0000,-114.0307,51.1504,b'N',b'W',b'A',b'A',0.0000
1,3,6.3490,0.0813,0.0000,9.9294,8.7068,1.2116,3.9307,-1.3521,1.7295,-61.3352,97079.3438,31.9885,0.7631,0.0271,-0.6429,-0.0606,3.9307,0.0000,0.0000,0.0000,0.0000,383.9463,0.0000,3.2000,202725.0000,-114.0307,51.1504,b'N',b'W',b'A',b'A',0.0000
1,3,6.3800,0.1005,-0.1627,9.9294,-1.3642,-8.8594,-19.1409,-1.3836,1.9811,-61.1620,97081.5469,31.9002,0.7606,0.0365,-0.6457,-0.0570,-19.1409,0.0000,0.0000,0.0000,0.0000,383.6315,0.0000,3.2000,202725.0000,-114.0307,51.1504,b'N',b'W',b'A',b'A',0.0000
1,3,6.4120,0.1723,-0.1388,9.7332,11.1482,19.4003,-21.1551,-1.2893,1.8238,-59.5745,97072.2266,32.0927,0.7627,0.0468,-0.6429,-0.0534,-21.1551,0.0000,0.0000,0.0000,0.0000,384.7379,0.0000,3.2000,202725.0000,-114.0307,51.1504,b'N',b'W',b'A',b'A',0.0000
1,3,6.4430,0.0622,0.0861,9.9294,-12.1065,18.4848,0.5127,-1.2893,1.7609,-60.4982,97077.4062,32.0870,0.7651,0.0372,-0.6400,-0.0606,0.5127,0.0000,0.0000,0.0000,0.0000,384.2502,0.0000,3.2000,202725.0000,-114.0307,51.1504,b'N',b'W',b'A',b'A',0.0000
1,3,6.4740,0.1483,-0.0813,9.6614,2.7863,23.6728,16.7483,-1.3521,1.9496,-58.9973,97080.7969,32.0306,0.7686,0.0380,-0.6365,-0.0517,16.7483,0.0000,0.0000,0.0000,0.0000,383.8644,0.0000,3.2000,134730.3594,12.5214,55.6720,b'N',b'E',b'A',b'A',0.0000
1,3,6.5060,0.0000,-0.0909,9.8911,-9.0547,-10.8736,-4.3702,-1.2578,1.9182,-59.2859,97074.0469,32.0912,0.7660,0.0464,-0.6397,-0.0435,-4.3702,0.0000,0.0000,0.0000,0.0000,384.5673,0.0000,3.2000,134730.3594,12.5214,55.6720,b'N',b'E',b'A',b'A',0.0000
1,3,6.5370,-0.1388,-0.1531,9.6470,-11.2520,-6.9673,-4.1260,-1.1006,1.8867,-59.9786,97076.5625,31.9881,0.7644,0.0575,-0.6413,-0.0331,-4.1260,0.0000,0.0000,0.0000,0.0000,384.2039,0.0000,3.2000,134730.3594,12.5214,55.6720,b'N',b'E',b'A',b'A',0.0000
1,3,6.5680,-0.1627,-0.0239,9.6997,16.8856,6.4607,16.3210,-1.1320,1.9811,-61.1043,97073.0469,32.0021,0.7648,0.0726,-0.6400,-0.0122,16.3210,0.0000,0.0000,0.0000,0.0000,384.5476,0.0000,3.2000,134730.3594,12.5214,55.6720,b'N',b'E',b'A',b'A',0.0000
1,3,6.6000,0.1053,-0.1483,9.9772,-9.1157,-3.6103,-1.0742,-1.3836,1.7295,-61.5950,97077.9453,32.0757,0.7632,0.0762,-0.6416,-0.0074,-1.0742,0.0000,0.0000,0.0000,0.0000,384.1856,0.0000,3.2000,134730.3594,12.5214,55.6720,b'N',b'E',b'A',b'A',0.0000
1,3,6.6310,0.0718,0.0909,9.9724,12.2469,-5.9297,-20.9110,-1.4150,1.8553,-58.2180,97079.9375,32.0014,0.7613,0.0748,-0.6438,-0.0157,-20.9110,0.0000,0.0000,0.0000,0.0000,383.9080,0.0000,3.2000,134730.3594,12.5214,55.6720,b'N',b'E',b'A',b'A',0.0000
1,3,6.6630,-0.1053,0.0957,9.8815,3.0915,-12.8878,-6.3233,-1.3836,1.7924,-58.0736,97080.5781,32.0229,0.7592,0.0626,-0.6472,-0.0299,-6.3233,0.0000,0.0000,0.0000,0.0000,383.8753,0.0000,3.2000,134731.3594,12.5216,55.6721,b'N',b'E',b'A',b'A',0.0000
1,3,6.6940,0.0718,-0.1436,9.8432,-17.7829,9.5735,-1.0132,-1.1320,2.0125,-60.3539,97075.1406,32.0045,0.7602,0.0655,-0.6458,-0.0252,-1.0132,0.0000,0.0000,0.0000,0.0000,384.3562,0.0000,3.2000,134731.3594,12.5216,55.6721,b'N',b'E',b'A',b'A',0.0000
1,3,6.7260,0.0239,-0.0096,9.7044,-1.1200,16.4706,-1.4405,-1.4150,2.0125,-59.2859,97077.9219,32.0275,0.7628,0.0671,-0.6428,-0.0223,-1.4405,0.0000,0.0000,0.0000,0.0000,384.1280,0.0000,3.2000,134731.3594,12.5216,55.6721,b'N',b'E',b'A',b'A',0.0000
1,3,6.7660,0.0526,-0.1340,9.9916,-16.9894,-10.9346,11.3771,-1.2893,1.8238,-59.3148,97077.3828,32.0338,0.7600,0.0679,-0.6462,-0.0149,11.3771,0.0000,0.0000,0.0000,0.0000,384.1853,0.0000,3.2000,134731.3594,12.5216,55.6721,b'N',b'E',b'A',b'A',0.0000
1,3,6.8000,0.0335,0.1579,9.9006,-18.2101,-8.1270,12.5978,-1.1635,1.8238,-59.6900,97079.3125,31.9385,0.7586,0.0521,-0.6491,-0.0242,12.5978,0.0000,0.0000,0.0000,0.0000,383.8864,0.0000,3.2000,134731.3594,12.5216,55.6721,b'N',b'E',b'A',b'A',0.0000
1,3,6.8300,-0.0861,0.0909,9.7092,-8.0171,11.7098,10.0954,-1.2893,1.7295,-58.8241,97078.5781,31.9291,0.7603,0.0356,-0.6476,-0.0364,10.0954,0.0000,0.0000,0.0000,0.0000,383.9424,0.0000,3.2000,134731.3594,12.5216,55.6721,b'N',b'E',b'A',b'A',0.0000
1,3,6.8570,-0.1053,0.0718,9.7619,-3.2563,-15.9396,3.6866,-1.3521,2.0754,-61.7393,97075.8203,32.0283,0.7569,0.0200,-0.6513,-0.0497,3.6866,0.0000,0.0000,0.0000,0.0000,384.3234,0.0000,3.2000,134731.3594,12.5216,55.6721,b'N',b'E',b'A',b'A',0.0000
1,3,6.8900,0.1771,0.0670,9.7188,-13.1441,-2.9999,-11.9997,-1.4465,1.9811,-61.5373,97074.5000,31.9657,0.7554,0.0164,-0.6526,-0.0561,-11.9997,0.0000,0.0000,0.0000,0.0000,384.3671,0.0000,2.6000,134731.3594,12.5216,55.6721,b'N',b'E',b'A',b'A',0.0000
1,3,6.9220,-0.1436,-0.1196,9.6614,4.0681,-13.5592,-19.8123,-1.1635,2.0754,-60.7002,97073.1641,31.9680,0.7526,0.0341,-0.6560,-0.0459,-19.8123,0.0000,0.0000,0.0000,0.0000,384.4943,0.0000,2.6000,134731.3594,12.5216,55.6721,b'N',b'E',b'A',b'A',0.0000
1,3,6.9540,0.0048,0.0479,9.7140,17.3739,14.1512,5.2735,-1.3207,1.8238,-58.4200,97077.5781,32.0697,0.7537,0.0261,-0.6547,-0.0516,5.2735,0.0000,0.0000,0.0000,0.0000,384.2130,0.0000,2.6000,134731.3594,12.5216,55.6721,b'N',b'E',b'A',b'A',0.0000
1,3,6.9770,-0.1483,0.0622,9.6901,-16.5011,-10.6905,4.4190,-1.4150,1.7924,-59.2570,97076.6484,31.9270,0.7513,0.0075,-0.6565,-0.0674,4.4190,0.0000,0.0000,0.0000,0.0000,384.1187,0.0000,2.6000,134731.3594,12.5216,55.6721,b'N',b'E',b'A',b'A',0.0000
1,3,7.0080,-0.1244,0.1148,9.8289,-10.0923,22.2080,14.2458,-1.1949,1.7924,-59.5745,97079.2344,32.0509,0.7545,-0.0101,-0.6515,-0.0789,14.2458,0.0000,0.0000,0.0000,0.0000,384.0350,0.0000,2.6000,134731.3594,12.5216,55.6721,b'N',b'E',b'A',b'A',0.0000
1,3,7.0390,-0.0335,-0.0048,9.7810,12.3079,1.9440,-7.9103,-1.1635,1.8867,-58.5355,97081.1797,31.9440,0.7554,0.0099,-0.6521,-0.0637,-7.9103,0.0000,0.0000,0.0000,0.0000,383.7206,0.0000,2.6000,134731.3594,12.5216,55.6721,b'N',b'E',b'A',b'A',0.0000
1,3,7.0830,0.0909,-0.0431,9.8815,11.8196,10.4891,-1.8067,-1.2264,2.0125,-61.2775,97081.1641,32.0871,0.7565,0.0158,-0.6512,-0.0576,-1.8067,0.0000,0.0000,0.0000,0.0000,383.9015,0.0000,2.6000,134732.0000,12.5216,55.6721,b'N',b'E',b'A',b'A',0.0000
1,3,7.1150,-0.1340,0.0096,9.8384,12.8573,14.0291,-1.6846,-1.1320,1.9496,-60.3539,97075.7422,31.9524,0.7583,0.0044,-0.6481,-0.0699,-1.6846,0.0000,0.0000,0.0000,0.0000,384.2350,0.0000,2.6000,134732.0000,12.5216,55.6721,b'N',b'E',b'A',b'A',0.0000
1,3,7.1460,0.0000,0.0622,9.7667,-17.3556,-2.2065,-10.2907,-1.1006,1.6980,-61.3641,97079.3125,31.9566,0.7565,-0.0076,-0.6485,-0.0841,-10.2907,0.0000,0.0000,0.0000,0.0000,383.9091,0.0000,2.6000,134732.0000,12.5216,55.6721,b'N',b'E',b'A',b'A',0.0000
1,3,7.1780,0.1914,-0.0861,9.9437,4.0070,23.3066,15.4665,-1.1006,1.7924,-61.6816,97079.4609,32.0178,0.7601,-0.0057,-0.6453,-0.0759,15.4665,0.0000,0.0000,0.0000,0.0000,383.9728,0.0000,2.6000,134732.0000,12.5216,55.6721,b'N',b'E',b'A',b'A',0.0000
1,3,7.2090,-0.0431,0.0909,9.7379,-1.4252,-7.3335,15.8328,-1.3207,1.8867,-60.1230,97076.3359,32.0793,0.7579,-0.0208,-0.6466,-0.0842,15.8328,0.0000,0.0000,0.0000,0.0000,384.3404,0.0000,2.6000,134732.0000,12.5216,55.6721,b'N',b'E',b'A',b'A',0.0000
1,3,7.2370,-0.1436,0.0813,9.6757,-16.8673,-14.5968,-6.6896,-1.4779,1.9496,-60.6136,97081.0859,31.9240,0.7537,-0.0371,-0.6483,-0.1014,-6.6896,0.0000,0.0000,0.0000,0.0000,383.7036,0.0000,2.6000,134732.0000,12.5216,55.6721,b'N',b'E',b'A',b'A',0.0000
1,3,7.2670,0.1723,-0.0957,9.8193,-3.6835,4.5075,11.8044,-1.1949,2.0125,-61.4218,97080.9844,32.0412,0.7545,-0.0356,-0.6485,-0.0943,11.8044,0.0000,0.0000,0.0000,0.0000,383.8602,0.0000,2.6000,134732.0000,12.5216,55.6721,b'N',b'E',b'A',b'A',0.0000
1,3,7.2990,0.1579,0.0191,9.8767,-4.3549,-14.5968,6.5553,-1.2893,1.7295,-60.8445,97081.1484,32.0919,0.7512,-0.0381,-0.6524,-0.0925,6.5553,0.0000,0.0000,0.0000,0.0000,383.9097,0.0000,2.6000,134732.0000,12.5216,55.6721,b'N',b'E',b'A',b'A',0.0000
1,3,7.3310,-0.0335,0.1292,9.7714,-7.0405,-8.6152,16.1990,-1.3207,2.0125,-58.9973,97080.3672,32.0171,0.7483,-0.0538,-0.6536,-0.1001,16.1990,0.0000,0.0000,0.0000,0.0000,383.8876,0.0000,2.6000,134732.0000,12.5216,55.6721,b'N',b'E',b'A',b'A',0.0000
1,3,7.3650,-0.0718,-0.1962,9.6853,12.6741,-5.3803,-19.0799,-1.1320,1.7295,-58.5932,97079.9531,31.9648,0.7478,-0.0355,-0.6569,-0.0891,-19.0799,0.0000,0.0000,0.0000,0.0000,383.8598,0.0000,2.6000,134732.0000,12.5216,55.6721,b'N',b'E',b'A',b'A',0.0000
-1,-1,4294967.2950,,,,,,,,,,,,,,,,,,,,,,,,,,,b'\xff',b'\xff',b'\xff',b'\xff',
-1,-1,4294967.2950,,,,,,,,,,,,,,,,,,,,,,,,,,,b'\xff',b'\xff',b'\xff',b'\xff',
-1,-1,4294967.2950,,,,,,,,,,,,,,,,,,,,,,,,,,,b'\xff',b'\xff',b'\xff',b'\xff',
-1,-1,4294967.2950,,,,,,,,,,,,,,,,,,,,,,,,,,,b'\xff',b'\xff',b'\xff',b'\xff',
-1,-1,4294967.2950,,,,,,,,,,,,,,,,,,,,,,,,,,,b'\xff',b'\xff',b'\xff',b'\xff',
-1,-1,4294967.2950,,,,,,,,,,,,,,,,,,,,,,,,,,,b'\xff',b'\xff',b'\xff',b'\xff',
-1,-1,4294967.2950,,,,,,,,,,,,,,,,,,,,,,,,,,,b'\xff',b'\xff',b'\xff',b'\xff',
-1,-1,4294967.2950,,,,,,,,,,,,,,,,,,,,,,,,,,,b'\xff',b'\xff',b'\xff',b'\xff',
-1,-1,4294967.2950,,,,,,,,,,,,,,,,,,,,,,,,,,,b'\xff',b'\xff',b'\xff',b'\xff',
-1,-1,4294967.2950,,,,,,,,,,,,,,,,,,,,,,,,,,,b'\xff',b'\xff',b'\xff',b'\xff',
-1,-1,4294967.2950,,,,,,,,,,,,,,,,,,,,,,,,,,,b'\xff',b'\xff',b'\xff',b'\xff',
-1,-1,4294967.2950,,,,,,,,,,,,,,,,,,,,,,,,,,,b'\xff',b'\xff',b'\xff',b'\xff',
-1,-1,4294967.2950,,,,,,,,,,,,,,,,,,,,,,,,,,,b'\xff',b'\xff',b'\xff',b'\xff',
-1,-1,4294967.2950,,,,,,,,,,,,,,,,,,,,,,,,,,,b'\xff',b'\xff',b'\xff',b'\xff',
-1,-1,4294967.2950,,,,,,,,,,,,,,,,,,,,,,,,,,,b'\xff',b'\xff',b'\xff',b'\xff',
-1,-1,4294967.2950,,,,,,,,,,,,,,,,,,,,,,,,,,,b'\xff',b'\xff',b'\xff',b'\xff',
-1,-1,4294967.2950,,,,,,,,,,,,,,,,,,,,,,,,,,,b'\xff',b'\xff',b'\xff',b'\xff',
-1,-1,4294967.2950,,,,,,,,,,,,,,,,,,,,,,,,,,,b'\xff',b'\xff',b'\xff',b'\xff',
-1,-1,4294967.2950,,,,,,,,,,,,,,,,,,,,,,,,,,,b'\xff',b'\xff',b'\xff',b'\xff',
-1,-1,4294967.2950,,,,,,,,,,,,,,,,,,,,,,,,,,,b'\xff',b'\xff',b'\xff',b'\xff',
-1,-1,4294967.2950,,,,,,,,,,,,,,,,,,,,,,,,,,,b'\xff',b'\xff',b'\xff',b'\xff',
-1,-1,4294967.2950,,,,,,,,,,,,,,,,,,,,,,,,,,,b'\xff',b'\xff',b'\xff',b'\xff',
-1,-1,4294967.2950,,,,,,,,,,,,,,,,,,,,,,,,,,,b'\xff',b'\xff',b'\xff',b'\xff',
-1,-1,4294967.2950,,,,,,,,,,,,,,,,,,,,,,,,,,,b'\xff',b'\xff',b'\xff',b'\xff',
-1,-1,4294967.2950,,,,,,,,,,,,,,,,,,,,,,,,,,,b'\xff',b'\xff',b'\xff',b'\xff',
-1,-1,4294967.2950,,,,,,,,,,,,,,,,,,,,,,,,,,,b'\xff',b'\xff',b'\xff',b'\xff',
-1,-1,4294967.2950,,,,,,,,,,,,,,,,,,,,,,,,,,,b'\xff',b'\xff',b'\xff',b'\xff',
-1,-1,4294967.2950,,,,,,,,,,,,,,,,,,,,,,,,,,,b'\xff',b'\xff',b'\xff',b'\xff',
-1,-1,4294967.2950,,,,,,,,,,,,,,,,,,,,,,,,,,,b'\xff',b'\xff',b'\xff',b'\xff',
-1,-1,4294967.2950,,,,,,,,,,,,,,,,,,,,,,,,,,,b'\xff',b'\xff',b'\xff',b'\xff',
-1,-1,4294967.2950,,,,,,,,,,,,,,,,,,,,,,,,,,,b'\xff',b'\xff',b'\xff',b'\xff',
-1,-1,4294967.2950,,,,,,,,,,,,,,,,,,,,,,,,,,,b'\xff',b'\xff',b'\xff',b'\xff',
-1,-1,4294967.2950,,,,,,,,,,,,,,,,,,,,,,,,,,,b'\xff',b'\xff',b'\xff',b'\xff',
-1,-1,4294967.2950,,,,,,,,,,,,,,,,,,,,,,,,,,,b'\xff',b'\xff',b'\xff',b'\xff',
-1,-1,4294967.2950,,,,,,,,,,,,,,,,,,,,,,,,,,,b'\xff',b'\xff',b'\xff',b'\xff',
-1,-1,4294967.2950,,,,,,,,,,,,,,,,,,,,,,,,,,,b'\xff',b'\xff',b'\xff',b'\xff',
-1,-1,4294967.2950,,,,,,,,,,,,,,,,,,,,,,,,,,,b'\xff',b'\xff',b'\xff',b'\xff',
-1,-1,4294967.2950,,,,,,,,,,,,,,,,,,,,,,,,,,,b'\xff',b'\xff',b'\xff',b'\xff',
-1,-1,4294967.2950,,,,,,,,,,,,,,,,,,,,,,,,,,,b'\xff',b'\xff',b'\xff',b'\xff',
-1,-1,4294967.2950,,,,,,,,,,,,,,,,,,,,,,,,,,,b'\xff',b'\xff',b'\xff',b'\xff',
-1,-1,4294967.2950,,,,,,,,,,,,,,,,,,,,,,,,,,,b'\xff',b'\xff',b'\xff',b'\xff',
-1,-1,4294967.2950,,,,,,,,,,,,,,,,,,,,,,,,,,,b'\xff',b'\xff',b'\xff',b'\xff',
-1,-1,4294967.2950,,,,,,,,,,,,,,,,,,,,,,,,,,,b'\xff',b'\xff',b'\xff',b'\xff',
-1,-1,4294967.2950,,,,,,,,,,,,,,,,,,,,,,,,,,,b'\xff',b'\xff',b'\xff',b'\xff',
-1,-1,4294967.2950,,,,,,,,,,,,,,,,,,,,,,,,,,,b'\xff',b'\xff',b'\xff',b'\xff',
-1,-1,4294967.2950,,,,,,,,,,,,,,,,,,,,,,,,,,,b'\xff',b'\xff',b'\xff',b'\xff',
-1,-1,4294967.2950,,,,,,,,,,,,,,,,,,,,,,,,,,,b'\xff',b'\xff',b'\xff',b'\xff',
-1,-1,4294967.2950,,,,,,,,,,,,,,,,,,,,,,,,,,,b'\xff',b'\xff',b'\xff',b'\xff',
-1,-1,4294967.2950,,,,,,,,,,,,,,,,,,,,,,,,,,,b'\xff',b'\xff',b'\xff',b'\xff',
-1,-1,4294967.2950,,,,,,,,,,,,,,,,,,,,,,,,,,,b'\xff',b'\xff',b'\xff',b'\xff',
-1,-1,4294967.2950,,,,,,,,,,,,,,,,,,,,,,,,,,,b'\xff',b'\xff',b'\xff',b'\xff',
-1,-1,4294967.2950,,,,,,,,,,,,,,,,,,,,,,,,,,,b'\xff',b'\xff',b'\xff',b'\xff',
-1,-1,4294967.2950,,,,,,,,,,,,,,,,,,,,,,,,,,,b'\xff',b'\xff',b'\xff',b'\xff',
-1,-1,4294967.2950,,,,,,,,,,,,,,,,,,,,,,,,,,,b'\xff',b'\xff',b'\xff',b'\xff',
-1,-1,4294967.2950,,,,,,,,,,,,,,,,,,,,,,,,,,,b'\xff',b'\xff',b'\xff',b'\xff',
-1,-1,4294967.2950,,,,,,,,,,,,,,,,,,,,,,,,,,,b'\xff',b'\xff',b'\xff',b'\xff',
-1,-1,4294967.2950,,,,,,,,,,,,,,,,,,,,,,,,,,,b'\xff',b'\xff',b'\xff',b'\xff',
-1,-1,4294967.2950,,,,,,,,,,,,,,,,,,,,,,,,,,,b'\xff',b'\xff',b'\xff',b'\xff',
-1,-1,4294967.2950,,,,,,,,,,,,,,,,,,,,,,,,,,,b'\xff',b'\xff',b'\xff',b'\xff',
-1,-1,4294967.2950,,,,,,,,,,,,,,,,,,,,,,,,,,,b'\xff',b'\xff',b'\xff',b'\xff',
-1,-1,4294967.2950,,,,,,,,,,,,,,,,,,,,,,,,,,,b'\xff',b'\xff',b'\xff',b'\xff',
-1,-1,4294967.2950,,,,,,,,,,,,,,,,,,,,,,,,,,,b'\xff',b'\xff',b'\xff',b'\xff',
-1,-1,4294967.2950,,,,,,,,,,,,,,,,,,,,,,,,,,,b'\xff',b'\xff',b'\xff',b'\xff',
-1,-1,4294967.2950,,,,,,,,,,,,,,,,,,,,,,,,,,,b'\xff',b'\xff',b'\xff',b'\xff',
-1,-1,4294967.2950,,,,,,,,,,,,,,,,,,,,,,,,,,,b'\xff',b'\xff',b'\xff',b'\xff',
-1,-1,4294967.2950,,,,,,,,,,,,,,,,,,,,,,,,,,,b'\xff',b'\xff',b'\xff',b'\xff',
-1,-1,4294967.2950,,,,,,,,,,,,,,,,,,,,,,,,,,,b'\xff',b'\xff',b'\xff',b'\xff',
-1,-1,4294967.2950,,,,,,,,,,,,,,,,,,,,,,,,,,,b'\xff',b'\xff',b'\xff',b'\xff',
-1,-1,4294967.2950,,,,,,,,,,,,,,,,,,,,,,,,,,,b'\xff',b'\xff',b'\xff',b'\xff',
-1,-1,4294967.2950,,,,,,,,,,,,,,,,,,,,,,,,,,,b'\xff',b'\xff',b'\xff',b'\xff',
-1,-1,4294967.2950,,,,,,,,,,,,,,,,,,,,,,,,,,,b'\xff',b'\xff',b'\xff',b'\xff',
-1,-1,4294967.2950,,,,,,,,,,,,,,,,,,,,,,,,,,,b'\xff',b'\xff',b'\xff',b'\xff',
-1,-1,4294967.2950,,,,,,,,,,,,,,,,,,,,,,,,,,,b'\xff',b'\xff',b'\xff',b'\xff',
-1,-1,4294967.2950,,,,,,,,,,,,,,,,,,,,,,,,,,,b'\xff',b'\xff',b'\xff',b'\xff',
-1,-1,4294967.2950,,,,,,,,,,,,,,,,,,,,,,,,,,,b'\xff',b'\xff',b'\xff',b'\xff',
-1,-1,4294967.2950,,,,,,,,,,,,,,,,,,,,,,,,,,,b'\xff',b'\xff',b'\xff',b'\xff',
-1,-1,4294967.2950,,,,,,,,,,,,,,,,,,,,,,,,,,,b'\xff',b'\xff',b'\xff',b'\xff',
-1,-1,4294967.2950,,,,,,,,,,,,,,,,,,,,,,,,,,,b'\xff',b'\xff',b'\xff',b'\xff',
-1,-1,4294967.2950,,,,,,,,,,,,,,,,,,,,,,,,,,,b'\xff',b'\xff',b'\xff',b'\xff',
-1,-1,4294967.2950,,,,,,,,,,,,,,,,,,,,,,,,,,,b'\xff',b'\xff',b'\xff',b'\xff',
-1,-1,4294967.2950,,,,,,,,,,,,,,,,,,,,,,,,,,,b'\xff',b'\xff',b'\xff',b'\xff',
-1,-1,4294967.2950,,,,,,,,,,,,,,,,,,,,,,,,,,,b'\xff',b'\xff',b'\xff',b'\xff',
-1,-1,4294967.2950,,,,,,,,,,,,,,,,,,,,,,,,,,,b'\xff',b'\xff',b'\xff',b'\xff',
-1,-1,4294967.2950,,,,,,,,,,,,,,,,,,,,,,,,,,,b'\xff',b'\xff',b'\xff',b'\xff',
-1,-1,4294967.2950,,,,,,,,,,,,,,,,,,,,,,,,,,,b'\xff',b'\xff',b'\xff',b'\xff',
-1,-1,4294967.2950,,,,,,,,,,,,,,,,,,,,,,,,,,,b'\xff',b'\xff',b'\xff',b'\xff',
-1,-1,4294967.2950,,,,,,,,,,,,,,,,,,,,,,,,,,,b'\xff',b'\xff',b'\xff',b'\xff',
-1,-1,4294967.2950,,,,,,,,,,,,,,,,,,,,,,,,,,,b'\xff',b'\xff',b'\xff',b'\xff',
-1,-1,4294967.2950,,,,,,,,,,,,,,,,,,,,,,,,,,,b'\xff',b'\xff',b'\xff',b'\xff',
-1,-1,4294967.2950,,,,,,,,,,,,,,,,,,,,,,,,,,,b'\xff',b'\xff',b'\xff',b'\xff',
-1,-1,4294967.2950,,,,,,,,,,,,,,,,,,,,,,,,,,,b'\xff',b'\xff',b'\xff',b'\xff',
-1,-1,4294967.2950,,,,,,,,,,,,,,,,,,,,,,,,,,,b'\xff',b'\xff',b'\xff',b'\xff',
-1,-1,4294967.2950,,,,,,,,,,,,,,,,,,,,,,,,,,,b'\xff',b'\xff',b'\xff',b'\xff',
-1,-1,4294967.2950,,,,,,,,,,,,,,,,,,,,,,,,,,,b'\xff',b'\xff',b'\xff',b'\xff',
-1,-1,4294967.2950,,,,,,,,,,,,,,,,,,,,,,,,,,,b'\xff',b'\xff',b'\xff',b'\xff',
-1,-1,4294967.2950,,,,,,,,,,,,,,,,,,,,,,,,,,,b'\xff',b'\xff',b'\xff',b'\xff',
-1,-1,4294967.2950,,,,,,,,,,,,,,,,,,,,,,,,,,,b'\xff',b'\xff',b'\xff',b'\xff',
-1,-1,4294967.2950,,,,,,,,,,,,,,,,,,,,,,,,,,,b'\xff',b'\xff',b'\xff',b'\xff',
-1,-1,4294967.2950,,,,,,,,,,,,,,,,,,,,,,,,,,,b'\xff',b'\xff',b'\xff',b'\xff',
-1,-1,4294967.2950,,,,,,,,,,,,,,,,,,,,,,,,,,,b'\xff',b'\xff',b'\xff',b'\xff',
-1,-1,4294967.2950,,,,,,,,,,,,,,,,,,,,,,,,,,,b'\xff',b'\xff',b'\xff',b'\xff',
-1,-1,4294967.2950,,,,,,,,,,,,,,,,,,,,,,,,,,,b'\xff',b'\xff',b'\xff',b'\xff',
-1,-1,4294967.2950,,,,,,,,,,,,,,,,,,,,,,,,,,,b'\xff',b'\xff',b'\xff',b'\xff',
-1,-1,4294967.2950,,,,,,,,,,,,,,,,,,,,,,,,,,,b'\xff',b'\xff',b'\xff',b'\xff',
-1,-1,4294967.2950,,,,,,,,,,,,,,,,,,,,,,,,,,,b'\xff',b'\xff',b'\xff',b'\xff',
-1,-1,4294967.2950,,,,,,,,,,,,,,,,,,,,,,,,,,,b'\xff',b'\xff',b'\xff',b'\xff',
-1,-1,4294967.2950,,,,,,,,,,,,,,,,,,,,,,,,,,,b'\xff',b'\xff',b'\xff',b'\xff',
-1,-1,4294967.2950,,,,,,,,,,,,,,,,,,,,,,,,,,,b'\xff',b'\xff',b'\xff',b'\xff',
-1,-1,4294967.2950,,,,,,,,,,,,,,,,,,,,,,,,,,,b'\xff',b'\xff',b'\xff',b'\xff',
-1,-1,4294967.2950,,,,,,,,,,,,,,,,,,,,,,,,,,,b'\xff',b'\xff',b'\xff',b'\xff',
-1,-1,4294967.2950,,,,,,,,,,,,,,,,,,,,,,,,,,,b'\xff',b'\xff',b'\xff',b'\xff',
-1,-1,4294967.2950,,,,,,,,,,,,,,,,,,,,,,,,,,,b'\xff',b'\xff',b'\xff',b'\xff',
-1,-1,4294967.2950,,,,,,,,,,,,,,,,,,,,,,,,,,,b'\xff',b'\xff',b'\xff',b'\xff',
-1,-1,4294967.2950,,,,,,,,,,,,,,,,,,,,,,,,,,,b'\xff',b'\xff',b'\xff',b'\xff',
-1,-1,4294967.2950,,,,,,,,,,,,,,,,,,,,,,,,,,,b'\xff',b'\xff',b'\xff',b'\xff',
-1,-1,4294967.2950,,,,,,,,,,,,,,,,,,,,,,,,,,,b'\xff',b'\xff',b'\xff',b'\xff',
-1,-1,4294967.2950,,,,,,,,,,,,,,,,,,,,,,,,,,,b'\xff',b'\xff',b'\xff',b'\xff',
-1,-1,4294967.2950,,,,,,,,,,,,,,,,,,,,,,,,,,,b'\xff',b'\xff',b'\xff',b'\xff',
-1,-1,4294967.2950,,,,,,,,,,,,,,,,,,,,,,,,,,,b'\xff',b'\xff',b'\xff',b'\xff',
-1,-1,4294967.2950,,,,,,,,,,,,,,,,,,,,,,,,,,,b'\xff',b'\xff',b'\xff',b'\xff',
-1,-1,4294967.2950,,,,,,,,,,,,,,,,,,,,,,,,,,,b'\xff',b'\xff',b'\xff',b'\xff',
-1,-1,4294967.2950,,,,,,,,,,,,,,,,,,,,,,,,,,,b'\xff',b'\xff',b'\xff',b'\xff',
-1,-1,4294967.2950,,,,,,,,,,,,,,,,,,,,,,,,,,,b'\xff',b'\xff',b'\xff',b'\xff',
-1,-1,4294967.2950,,,,,,,,,,,,,,,,,,,,,,,,,,,b'\xff',b'\xff',b'\xff',b'\xff',
-1,-1,4294967.2950,,,,,,,,,,,,,,,,,,,,,,,,,,,b'\xff',b'\xff',b'\xff',b'\xff',
-1,-1,4294967.2950,,,,,,,,,,,,,,,,,,,,,,,,,,,b'\xff',b'\xff',b'\xff',b'\xff',
-1,-1,4294967.2950,,,,,,,,,,,,,,,,,,,,,,,,,,,b'\xff',b'\xff',b'\xff',b'\xff',
-1,-1,4294967.2950,,,,,,,,,,,,,,,,,,,,,,,,,,,b'\xff',b'\xff',b'\xff',b'\xff',
-1,-1,4294967.2950,,,,,,,,,,,,,,,,,,,,,,,,,,,b'\xff',b'\xff',b'\xff',b'\xff',
-1,-1,4294967.2950,,,,,,,,,,,,,,,,,,,,,,,,,,,b'\xff',b'\xff',b'\xff',b'\xff',
-1,-1,4294967.2950,,,,,,,,,,,,,,,,,,,,,,,,,,,b'\xff',b'\xff',b'\xff',b'\xff',
-1,-1,4294967.2950,,,,,,,,,,,,,,,,,,,,,,,,,,,b'\xff',b'\xff',b'\xff',b'\xff',
-1,-1,4294967.2950,,,,,,,,,,,,,,,,,,,,,,,,,,,b'\xff',b'\xff',b'\xff',b'\xff',
-1,-1,4294967.2950,,,,,,,,,,,,,,,,,,,,,,,,,,,b'\xff',b'\xff',b'\xff',b'\xff',
-1,-1,4294967.2950,,,,,,,,,,,,,,,,,,,,,,,,,,,b'\xff',b'\xff',b'\xff',b'\xff',
-1,-1,4294967.2950,,,,,,,,,,,,,,,,,,,,,,,,,,,b'\xff',b'\xff',b'\xff',b'\xff',
-1,-1,4294967.2950,,,,,,,,,,,,,,,,,,,,,,,,,,,b'\xff',b'\xff',b'\xff',b'\xff',
-1,-1,4294967.2950,,,,,,,,,,,,,,,,,,,,,,,,,,,b'\xff',b'\xff',b'\xff',b'\xff',
-1,-1,4294967.2950,,,,,,,,,,,,,,,,,,,,,,,,,,,b'\xff',b'\xff',b'\xff',b'\xff',
-1,-1,4294967.2950,,,,,,,,,,,,,,,,,,,,,,,,,,,b'\xff',b'\xff',b'\xff',b'\xff',
-1,-1,4294967.2950,,,,,,,,,,,,,,,,,,,,,,,,,,,b'\xff',b'\xff',b'\xff',b'\xff',
-1,-1,4294967.2950,,,,,,,,,,,,,,,,,,,,,,,,,,,b'\xff',b'\xff',b'\xff',b'\xff',
-1,-1,4294967.2950,,,,,,,,,,,,,,,,,,,,,,,,,,,b'\xff',b'\xff',b'\xff',b'\xff',
-1,-1,4294967.2950,,,,,,,,,,,,,,,,,,,,,,,,,,,b'\xff',b'\xff',b'\xff',b'\xff',
-1,-1,4294967.2950,,,,,,,,,,,,,,,,,,,,,,,,,,,b'\xff',b'\xff',b'\xff',b'\xff',
-1,-1,4294967.2950,,,,,,,,,,,,,,,,,,,,,,,,,,,b'\xff',b'\xff',b'\xff',b'\xff',
-1,-1,4294967.2950,,,,,,,,,,,,,,,,,,,,,,,,,,,b'\xff',b'\xff',b'\xff',b'\xff',
-1,-1,4294967.2950,,,,,,,,,,,,,,,,,,,,,,,,,,,b'\xff',b'\xff',b'\xff',b'\xff',
-1,-1,4294967.2950,,,,,,,,,,,,,,,,,,,,,,,,,,,b'\xff',b'\xff',b'\xff',b'\xff',
-1,-1,4294967.2950,,,,,,,,,,,,,,,,,,,,,,,,,,,b'\xff',b'\xff',b'\xff',b'\xff',
-1,-1,4294967.2950,,,,,,,,,,,,,,,,,,,,,,,,,,,b'\xff',b'\xff',b'\xff',b'\xff',
-1,-1,4294967.2950,,,,,,,,,,,,,,,,,,,,,,,,,,,b'\xff',b'\xff',b'\xff',b'\xff',
-1,-1,4294967.2950,,,,,,,,,,,,,,,,,,,,,,,,,,,b'\xff',b'\xff',b'\xff',b'\xff',
-1,-1,4294967.2950,,,,,,,,,,,,,,,,,,,,,,,,,,,b'\xff',b'\xff',b'\xff',b'\xff',
-1,-1,4294967.2950,,,,,,,,,,,,,,,,,,,,,,,,,,,b'\xff',b'\xff',b'\xff',b'\xff',
-1,-1,4294967.2950,,,,,,,,,,,,,,,,,,,,,,,,,,,b'\xff',b'\xff',b'\xff',b'\xff',
-1,-1,4294967.2950,,,,,,,,,,,,,,,,,,,,,,,,,,,b'\xff',b'\xff',b'\xff',b'\xff',
-1,-1,4294967.2950,,,,,,,,,,,,,,,,,,,,,,,,,,,b'\xff',b'\xff',b'\xff',b'\xff',
-1,-1,4294967.2950,,,,,,,,,,,,,,,,,,,,,,,,,,,b'\xff',b'\xff',b'\xff',b'\xff',
-1,-1,4294967.2950,,,,,,,,,,,,,,,,,,,,,,,,,,,b'\xff',b'\xff',b'\xff',b'\xff',
-1,-1,4294967.2950,,,,,,,,,,,,,,,,,,,,,,,,,,,b'\xff',b'\xff',b'\xff',b'\xff',
-1,-1,4294967.2950,,,,,,,,,,,,,,,,,,,,,,,,,,,b'\xff',b'\xff',b'\xff',b'\xff',
-1,-1,4294967.2950,,,,,,,,,,,,,,,,,,,,,,,,,,,b'\xff',b'\xff',b'\xff',b'\xff',
-1,-1,4294967.2950,,,,,,,,,,,,,,,,,,,,,,,,,,,b'\xff',b'\xff',b'\xff',b'\xff',
-1,-1,4294967.2950,,,,,,,,,,,,,,,,,,,,,,,,,,,b'\xff',b'\xff',b'\xff',b'\xff',
-1,-1,4294967.2950,,,,,,,,,,,,,,,,,,,,,,,,,,,b'\xff',b'\xff',b'\xff',b'\xff',
-1,-1,4294967.2950,,,,,,,,,,,,,,,,,,,,,,,,,,,b'\xff',b'\xff',b'\xff',b'\xff',
-1,-1,4294967.2950,,,,,,,,,,,,,,,,,,,,,,,,,,,b'\xff',b'\xff',b'\xff',b'\xff',
-1,-1,4294967.2950,,,,,,,,,,,,,,,,,,,,,,,,,,,b'\xff',b'\xff',b'\xff',b'\xff',
-1,-1,4294967.2950,,,,,,,,,,,,,,,,,,,,,,,,,,,b'\xff',b'\xff',b'\xff',b'\xff',
-1,-1,4294967.2950,,,,,,,,,,,,,,,,,,,,,,,,,,,b'\xff',b'\xff',b'\xff',b'\xff',
-1,-1,4294967.2950,,,,,,,,,,,,,,,,,,,,,,,,,,,b'\xff',b'\xff',b'\xff',b'\xff',
-1,-1,4294967.2950,,,,,,,,,,,,,,,,,,,,,,,,,,,b'\xff',b'\xff',b'\xff',b'\xff',
-1,-1,4294967.2950,,,,,,,,,,,,,,,,,,,,,,,,,,,b'\xff',b'\xff',b'\xff',b'\xff',
-1,-1,4294967.2950,,,,,,,,,,,,,,,,,,,,,,,,,,,b'\xff',b'\xff',b'\xff',b'\xff',
-1,-1,4294967.2950,,,,,,,,,,,,,,,,,,,,,,,,,,,b'\xff',b'\xff',b'\xff',b'\xff',
-1,-1,4294967.2950,,,,,,,,,,,,,,,,,,,,,,,,,,,b'\xff',b'\xff',b'\xff',b'\xff',
-1,-1,4294967.2950,,,,,,,,,,,,,,,,,,,,,,,,,,,b'\xff',b'\xff',b'\xff',b'\xff',
-1,-1,4294967.2950,,,,,,,,,,,,,,,,,,,,,,,,,,,b'\xff',b'\xff',b'\xff',b'\xff',
-1,-1,4294967.2950,,,,,,,,,,,,,,,,,,,,,,,,,,,b'\xff',b'\xff',b'\xff',b'\xff',
-1,-1,4294967.2950,,,,,,,,,,,,,,,,,,,,,,,,,,,b'\xff',b'\xff',b'\xff',b'\xff',
-1,-1,4294967.2950,,,,,,,,,,,,,,,,,,,,,,,,,,,b'\xff',b'\xff',b'\xff',b'\xff',
-1,-1,4294967.2950,,,,,,,,,,,,,,,,,,,,,,,,,,,b'\xff',b'\xff',b'\xff',b'\xff',
-1,-1,4294967.2950,,,,,,,,,,,,,,,,,,,,,,,,,,,b'\xff',b'\xff',b'\xff',b'\xff',
-1,-1,4294967.2950,,,,,,,,,,,,,,,,,,,,,,,,,,,b'\xff',b'\xff',b'\xff',b'\xff',
-1,-1,4294967.2950,,,,,,,,,,,,,,,,,,,,,,,,,,,b'\xff',b'\xff',b'\xff',b'\xff',
-1,-1,4294967.2950,,,,,,,,,,,,,,,,,,,,,,,,,,,b'\xff',b'\xff',b'\xff',b'\xff',
-1,-1,4294967.2950,,,,,,,,,,,,,,,,,,,,,,,,,,,b'\xff',b'\xff',b'\xff',b'\xff',
-1,-1,4294967.2950,,,,,,,,,,,,,,,,,,,,,,,,,,,b'\xff',b'\xff',b'\xff',b'\xff',
-1,-1,4294967.2950,,,,,,,,,,,,,,,,,,,,,,,,,,,b'\xff',b'\xff',b'\xff',b'\xff',
-1,-1,4294967.2950,,,,,,,,,,,,,,,,,,,,,,,,,,,b'\xff',b'\xff',b'\xff',b'\xff',
-1,-1,4294967.2950,,,,,,,,,,,,,,,,,,,,,,,,,,,b'\xff',b'\xff',b'\xff',b'\xff',
-1,-1,4294967.2950,,,,,,,,,,,,,,,,,,,,,,,,,,,b'\xff',b'\xff',b'\xff',b'\xff',
-1,-1,4294967.2950,,,,,,,,,,,,,,,,,,,,,,,,,,,b'\xff',b'\xff',b'\xff',b'\xff',
-1,-1,4294967.2950,,,,,,,,,,,,,,,,,,,,,,,,,,,b'\xff',b'\xff',b'\xff',b'\xff',
-1,-1,4294967.2950,,,,,,,,,,,,,,,,,,,,,,,,,,,b'\xff',b'\xff',b'\xff',b'\xff',
-1,-1,4294967.2950,,,,,,,,,,,,,,,,,,,,,,,,,,,b'\xff',b'\xff',b'\xff',b'\xff',
-1,-1,4294967.2950,,,,,,,,,,,,,,,,,,,,,,,,,,,b'\xff',b'\xff',b'\xff',b'\xff',
-1,-1,4294967.2950,,,,,,,,,,,,,,,,,,,,,,,,,,,b'\xff',b'\xff',b'\xff',b'\xff',
-1,-1,4294967.2950,,,,,,,,,,,,,,,,,,,,,,,,,,,b'\xff',b'\xff',b'\xff',b'\xff',
-1,-1,4294967.2950,,,,,,,,,,,,,,,,,,,,,,,,,,,b'\xff',b'\xff',b'\xff',b'\xff',
-1,-1,4294967.2950,,,,,,,,,,,,,,,,,,,,,,,,,,,b'\xff',b'\xff',b'\xff',b'\xff',
-1,-1,4294967.2950,,,,,,,,,,,,,,,,,,,,,,,,,,,b'\xff',b'\xff',b'\xff',b'\xff',
-1,-1,4294967.2950,,,,,,,,,,,,,,,,,,,,,,,,,,,b'\xff',b'\xff',b'\xff',b'\xff',
-1,-1,4294967.2950,,,,,,,,,,,,,,,,,,,,,,,,,,,b'\xff',b'\xff',b'\xff',b'\xff',
-1,-1,4294967.2950,,,,,,,,,,,,,,,,,,,,,,,,,,,b'\xff',b'\xff',b'\xff',b'\xff',
-1,-1,4294967.2950,,,,,,,,,,,,,,,,,,,,,,,,,,,b'\xff',b'\xff',b'\xff',b'\xff',
-1,-1,4294967.2950,,,,,,,,,,,,,,,,,,,,,,,,,,,b'\xff',b'\xff',b'\xff',b'\xff',
-1,-1,4294967.2950,,,,,,,,,,,,,,,,,,,,,,,,,,,b'\xff',b'\xff',b'\xff',b'\xff',
-1,-1,4294967.2950,,,,,,,,,,,,,,,,,,,,,,,,,,,b'\xff',b'\xff',b'\xff',b'\xff',
-1,-1,4294967.2950,,,,,,,,,,,,,,,,,,,,,,,,,,,b'\xff',b'\xff',b'\xff',b'\xff',
-1,-1,4294967.2950,,,,,,,,,,,,,,,,,,,,,,,,,,,b'\xff',b'\xff',b'\xff',b'\xff',
-1,-1,4294967.2950,,,,,,,,,,,,,,,,,,,,,,,,,,,b'\xff',b'\xff',b'\xff',b'\xff',
-1,-1,4294967.2950,,,,,,,,,,,,,,,,,,,,,,,,,,,b'\xff',b'\xff',b'\xff',b'\xff',
-1,-1,4294967.2950,,,,,,,,,,,,,,,,,,,,,,,,,,,b'\xff',b'\xff',b'\xff',b'\xff',
-1,-1,4294967.2950,,,,,,,,,,,,,,,,,,,,,,,,,,,b'\xff',b'\xff',b'\xff',b'\xff',
-1,-1,4294967.2950,,,,,,,,,,,,,,,,,,,,,,,,,,,b'\xff',b'\xff',b'\xff',b'\xff',
-1,-1,4294967.2950,,,,,,,,,,,,,,,,,,,,,,,,,,,b'\xff',b'\xff',b'\xff',b'\xff',
-1,-1,4294967.2950,,,,,,,,,,,,,,,,,,,,,,,,,,,b'\xff',b'\xff',b'\xff',b'\xff',
-1,-1,4294967.2950,,,,,,,,,,,,,,,,,,,,,,,,,,,b'\xff',b'\xff',b'\xff',b'\xff',
-1,-1,4294967.2950,,,,,,,,,,,,,,,,,,,,,,,,,,,b'\xff',b'\xff',b'\xff',b'\xff',
-1,-1,4294967.2950,,,,,,,,,,,,,,,,,,,,,,,,,,,b'\xff',b'\xff',b'\xff',b'\xff',
-1,-1,4294967.2950,,,,,,,,,,,,,,,,,,,,,,,,,,,b'\xff',b'\xff',b'\xff',b'\xff',
-1,-1,4294967.2950,,,,,,,,,,,,,,,,,,,,,,,,,,,b'\xff',b'\xff',b'\xff',b'\xff',
-1,-1,4294967.2950,,,,,,,,,,,,,,,,,,,,,,,,,,,b'\xff',b'\xff',b'\xff',b'\xff',
-1,-1,4294967.2950,,,,,,,,,,,,,,,,,,,,,,,,,,,b'\xff',b'\xff',b'\xff',b'\xff',
-1,-1,4294967.2950,,,,,,,,,,,,,,,,,,,,,,,,,,,b'\xff',b'\xff',b'\xff',b'\xff',
-1,-1,4294967.2950,,,,,,,,,,,,,,,,,,,,,,,,,,,b'\xff',b'\xff',b'\xff',b'\xff',
-1,-1,4294967.2950,,,,,,,,,,,,,,,,,,,,,,,,,,,b'\xff',b'\xff',b'\xff',b'\xff',
-1,-1,4294967.2950,,,,,,,,,,,,,,,,,,,,,,,,,,,b'\xff',b'\xff',b'\xff',b'\xff',
-1,-1,4294967.2950,,,,,,,,,,,,,,,,,,,,,,,,,,,b'\xff',b'\xff',b'\xff',b'\xff',
-1,-1,4294967.2950,,,,,,,,,,,,,,,,,,,,,,,,,,,b'\xff',b'\xff',b'\xff',b'\xff',
-1,-1,4294967.2950,,,,,,,,,,,,,,,,,,,,,,,,,,,b'\xff',b'\xff',b'\xff',b'\xff',
-1,-1,4294967.2950,,,,,,,,,,,,,,,,,,,,,,,,,,,b'\xff',b'\xff',b'\xff',b'\xff',
-1,-1,4294967.2950,,,,,,,,,,,,,,,,,,,,,,,,,,,b'\xff',b'\xff',b'\xff',b'\xff',
-1,-1,4294967.2950,,,,,,,,,,,,,,,,,,,,,,,,,,,b'\xff',b'\xff',b'\xff',b'\xff',
-1,-1,4294967.2950,,,,,,,,,,,,,,,,,,,,,,,,,,,b'\xff',b'\xff',b'\xff',b'\xff',
-1,-1,4294967.2950,,,,,,,,,,,,,,,,,,,,,,,,,,,b'\xff',b'\xff',b'\xff',b'\xff',
-1,-1,4294967.2950,,,,,,,,,,,,,,,,,,,,,,,,,,,b'\xff',b'\xff',b'\xff',b'\xff',
-1,-1,4294967.2950,,,,,,,,,,,,,,,,,,,,,,,,,,,b'\xff',b'\xff',b'\xff',b'\xff',
-1,-1,4294967.2950,,,,,,,,,,,,,,,,,,,,,,,,,,,b'\xff',b'\xff',b'\xff',b'\xff',
-1,-1,4294967.2950,,,,,,,,,,,,,,,,,,,,,,,,,,,b'\xff',b'\xff',b'\xff',b'\xff',
-1,-1,4294967.2950,,,,,,,,,,,,,,,,,,,,,,,,,,,b'\xff',b'\xff',b'\xff',b'\xff',
-1,-1,4294967.2950,,,,,,,,,,,,,,,,,,,,,,,,,,,b'\xff',b'\xff',b'\xff',b'\xff',
-1,-1,4294967.2950,,,,,,,,,,,,,,,,,,,,,,,,,,,b'\xff',b'\xff',b'\xff',b'\xff',
-1,-1,4294967.2950,,,,,,,,,,,,,,,,,,,,,,,,,,,b'\xff',b'\xff',b'\xff',b'\xff',
-1,-1,4294967.2950,,,,,,,,,,,,,,,,,,,,,,,,,,,b'\xff',b'\xff',b'\xff',b'\xff',
-1,-1,4294967.2950,,,,,,,,,,,,,,,,,,,,,,,,,,,b'\xff',b'\xff',b'\xff',b'\xff',
-1,-1,4294967.2950,,,,,,,,,,,,,,,,,,,,,,,,,,,b'\xff',b'\xff',b'\xff',b'\xff',
-1,-1,4294967.2950,,,,,,,,,,,,,,,,,,,,,,,,,,,b'\xff',b'\xff',b'\xff',b'\xff',
-1,-1,4294967.2950,,,,,,,,,,,,,,,,,,,,,,,,,,,b'\xff',b'\xff',b'\xff',b'\xff',
-1,-1,4294967.2950,,,,,,,,,,,,,,,,,,,,,,,,,,,b'\xff',b'\xff',b'\xff',b'\xff',
-1,-1,4294967.2950,,,,,,,,,,,,,,,,,,,,,,,,,,,b'\xff',b'\xff',b'\xff',b'\xff',
-1,-1,4294967.2950,,,,,,,,,,,,,,,,,,,,,,,,,,,b'\xff',b'\xff',b'\xff',b'\xff',
-1,-1,4294967.2950,,,,,,,,,,,,,,,,,,,,,,,,,,,b'\xff',b'\xff',b'\xff',b'\xff',
-1,-1,4294967.2950,,,,,,,,,,,,,,,,,,,,,,,,,,,b'\xff',b'\xff',b'\xff',b'\xff',
-1,-1,4294967.2950,,,,,,,,,,,,,,,,,,,,,,,,,,,b'\xff',b'\xff',b'\xff',b'\xff',
-1,-1,4294967.2950,,,,,,,,,,,,,,,,,,,,,,,,,,,b'\xff',b'\xff',b'\xff',b'\xff',
-1,-1,4294967.2950,,,,,,,,,,,,,,,,,,,,,,,,,,,b'\xff',b'\xff',b'\xff',b'\xff',
-1,-1,4294967.2950,,,,,,,,,,,,,,,,,,,,,,,,,,,b'\xff',b'\xff',b'\xff',b'\xff',
-1,-1,4294967.2950,,,,,,,,,,,,,,,,,,,,,,,,,,,b'\xff',b'\xff',b'\xff',b'\xff',
-1,-1,4294967.2950,,,,,,,,,,,,,,,,,,,,,,,,,,,b'\xff',b'\xff',b'\xff',b'\xff',
-1,-1,4294967.2950,,,,,,,,,,,,,,,,,,,,,,,,,,,b'\xff',b'\xff',b'\xff',b'\xff',
-1,-1,4294967.2950,,,,,,,,,,,,,,,,,,,,,,,,,,,b'\xff',b'\xff',b'\xff',b'\xff',
-1,-1,4294967.2950,,,,,,,,,,,,,,,,,,,,,,,,,,,b'\xff',b'\xff',b'\xff',b'\xff',
-1,-1,4294967.2950,,,,,,,,,,,,,,,,,,,,,,,,,,,b'\xff',b'\xff',b'\xff',b'\xff',
-1,-1,4294967.2950,,,,,,,,,,,,,,,,,,,,,,,,,,,b'\xff',b'\xff',b'\xff',b'\xff',
-1,-1,4294967.2950,,,,,,,,,,,,,,,,,,,,,,,,,,,b'\xff',b'\xff',b'\xff',b'\xff',
-1,-1,4294967.2950,,,,,,,,,,,,,,,,,,,,,,,,,,,b'\xff',b'\xff',b'\xff',b'\xff',
-1,-1,4294967.2950,,,,,,,,,,,,,,,,,,,,,,,,,,,b'\xff',b'\xff',b'\xff',b'\xff',
-1,-1,4294967.2950,,,,,,,,,,,,,,,,,,,,,,,,,,,b'\xff',b'\xff',b'\xff',b'\xff',
-1,-1,4294967.2950,,,,,,,,,,,,,,,,,,,,,,,,,,,b'\xff',b'\xff',b'\xff',b'\xff',
-1,-1,4294967.2950,,,,,,,,,,,,,,,,,,,,,,,,,,,b'\xff',b'\xff',b'\xff',b'\xff',
-1,-1,4294967.2950,,,,,,,,,,,,,,,,,,,,,,,,,,,b'\xff',b'\xff',b'\xff',b'\xff',
-1,-1,4294967.2950,,,,,,,,,,,,,,,,,,,,,,,,,,,b'\xff',b'\xff',b'\xff',b'\xff',
-1,-1,4294967.2950,,,,,,,,,,,,,,,,,,,,,,,,,,,b'\xff',b'\xff',b'\xff',b'\xff',
-1,-1,4294967.2950,,,,,,,,,,,,,,,,,,,,,,,,,,,b'\xff',b'\xff',b'\xff',b'\xff',
-1,-1,4294967.2950,,,,,,,,,,,,,,,,,,,,,,,,,,,b'\xff',b'\xff',b'\xff',b'\xff',
-1,-1,4294967.2950,,,,,,,,,,,,,,,,,,,,,,,,,,,b'\xff',b'\xff',b'\xff',b'\xff',
-1,-1,4294967.2950,,,,,,,,,,,,,,,,,,,,,,,,,,,b'\xff',b'\xff',b'\xff',b'\xff',
-1,-1,4294967.2950,,,,,,,,,,,,,,,,,,,,,,,,,,,b'\xff',b'\xff',b'\xff',b'\xff',
-1,-1,4294967.2950,,,,,,,,,,,,,,,,,,,,,,,,,,,b'\xff',b'\xff',b'\xff',b'\xff',
-1,-1,4294967.2950,,,,,,,,,,,,,,,,,,,,,,,,,,,b'\xff',b'\xff',b'\xff',b'\xff',
-1,-1,4294967.2950,,,,,,,,,,,,,,,,,,,,,,,,,,,b'\xff',b'\xff',b'\xff',b'\xff',
-1,-1,4294967.2950,,,,,,,,,,,,,,,,,,,,,,,,,,,b'\xff',b'\xff',b'\xff',b'\xff',
-1,-1,4294967.2950,,,,,,,,,,,,,,,,,,,,,,,,,,,b'\xff',b'\xff',b'\xff',b'\xff',
-1,-1,4294967.2950,,,,,,,,,,,,,,,,,,,,,,,,,,,b'\xff',b'\xff',b'\xff',b'\xff',
-1,-1,4294967.2950,,,,,,,,,,,,,,,,,,,,,,,,,,,b'\xff',b'\xff',b'\xff',b'\xff',
-1,-1,4294967.2950,,,,,,,,,,,,,,,,,,,,,,,,,,,b'\xff',b'\xff',b'\xff',b'\xff',
-1,-1,4294967.2950,,,,,,,,,,,,,,,,,,,,,,,,,,,b'\xff',b'\xff',b'\xff',b'\xff',
-1,-1,4294967.2950,,,,,,,,,,,,,,,,,,,,,,,,,,,b'\xff',b'\xff',b'\xff',b'\xff',
-1,-1,4294967.2950,,,,,,,,,,,,,,,,,,,,,,,,,,,b'\xff',b'\xff',b'\xff',b'\xff',
-1,-1,4294967.2950,,,,,,,,,,,,,,,,,,,,,,,,,,,b'\xff',b'\xff',b'\xff',b'\xff',
-1,-1,4294967.2950,,,,,,,,,,,,,,,,,,,,,,,,,,,b'\xff',b'\xff',b'\xff',b'\xff',
-1,-1,4294967.2950,,,,,,,,,,,,,,,,,,,,,,,,,,,b'\xff',b'\xff',b'\xff',b'\xff',
-1,-1,4294967.2950,,,,,,,,,,,,,,,,,,,,,,,,,,,b'\xff',b'\xff',b'\xff',b'\xff',
-1,-1,4294967.2950,,,,,,,,,,,,,,,,,,,,,,,,,,,b'\xff',b'\xff',b'\xff',b'\xff',
-1,-1,4294967.2950,,,,,,,,,,,,,,,,,,,,,,,,,,,b'\xff',b'\xff',b'\xff',b'\xff',
-1,-1,4294967.2950,,,,,,,,,,,,,,,,,,,,,,,,,,,b'\xff',b'\xff',b'\xff',b'\xff',
-1,-1,4294967.2950,,,,,,,,,,,,,,,,,,,,,,,,,,,b'\xff',b'\xff',b'\xff',b'\xff',
-1,-1,4294967.2950,,,,,,,,,,,,,,,,,,,,,,,,,,,b'\xff',b'\xff',b'\xff',b'\xff',
-1,-1,4294967.2950,,,,,,,,,,,,,,,,,,,,,,,,,,,b'\xff',b'\xff',b'\xff',b'\xff',
-1,-1,4294967.2950,,,,,,,,,,,,,,,,,,,,,,,,,,,b'\xff',b'\xff',b'\xff',b'\xff',
-1,-1,4294967.2950,,,,,,,,,,,,,,,,,,,,,,,,,,,b'\xff',b'\xff',b'\xff',b'\xff',
-1,-1,4294967.2950,,,,,,,,,,,,,,,,,,,,,,,,,,,b'\xff',b'\xff',b'\xff',b'\xff',
-1,-1,4294967.2950,,,,,,,,,,,,,,,,,,,,,,,,,,,b'\xff',b'\xff',b'\xff',b'\xff',
-1,-1,4294967.2950,,,,,,,,,,,,,,,,,,,,,,,,,,,b'\xff',b'\xff',b'\xff',b'\xff',
-1,-1,4294967.2950,,,,,,,,,,,,,,,,,,,,,,,,,,,b'\xff',b'\xff',b'\xff',b'\xff',
-1,-1,4294967.2950,,,,,,,,,,,,,,,,,,,,,,,,,,,b'\xff',b'\xff',b'\xff',b'\xff',
-1,-1,4294967.2950,,,,,,,,,,,,,,,,,,,,,,,,,,,b'\xff',b'\xff',b'\xff',b'\xff',
-1,-1,4294967.2950,,,,,,,,,,,,,,,,,,,,,,,,,,,b'\xff',b'\xff',b'\xff',b'\xff',
-1,-1,4294967.2950,,,,,,,,,,,,,,,,,,,,,,,,,,,b'\xff',b'\xff',b'\xff',b'\xff',
-1,-1,4294967.2950,,,,,,,,,,,,,,,,,,,,,,,,,,,b'\xff',b'\xff',b'\xff',b'\xff',
-1,-1,4294967.2950,,,,,,,,,,,,,,,,,,,,,,,,,,,b'\xff',b'\xff',b'\xff',b'\xff',
-1,-1,4294967.2950,,,,,,,,,,,,,,,,,,,,,,,,,,,b'\xff',b'\xff',b'\xff',b'\xff',
-1,-1,4294967.2950,,,,,,,,,,,,,,,,,,,,,,,,,,,b'\xff',b'\xff',b'\xff',b'\xff',
-1,-1,4294967.2950,,,,,,,,,,,,,,,,,,,,,,,,,,,b'\xff',b'\xff',b'\xff',b'\xff',
-1,-1,4294967.2950,,,,,,,,,,,,,,,,,,,,,,,,,,,b'\xff',b'\xff',b'\xff',b'\xff',
-1,-1,4294967.2950,,,,,,,,,,,,,,,,,,,,,,,,,,,b'\xff',b'\xff',b'\xff',b'\xff',
-1,-1,4294967.2950,,,,,,,,,,,,,,,,,,,,,,,,,,,b'\xff',b'\xff',b'\xff',b'\xff',
-1,-1,4294967.2950,,,,,,,,,,,,,,,,,,,,,,,,,,,b'\xff',b'\xff',b'\xff',b'\xff',
-1,-1,4294967.2950,,,,,,,,,,,,,,,,,,,,,,,,,,,b'\xff',b'\xff',b'\xff',b'\xff',
-1,-1,4294967.2950,,,,,,,,,,,,,,,,,,,,,,,,,,,b'\xff',b'\xff',b'\xff',b'\xff',
-1,-1,4294967.2950,,,,,,,,,,,,,,,,,,,,,,,,,,,b'\xff',b'\xff',b'\xff',b'\xff',
-1,-1,4294967.2950,,,,,,,,,,,,,,,,,,,,,,,,,,,b'\xff',b'\xff',b'\xff',b'\xff',
-1,-1,4294967.2950,,,,,,,,,,,,,,,,,,,,,,,,,,,b'\xff',b'\xff',b'\xff',b'\xff',
-1,-1,4294967.2950,,,,,,,,,,,,,,,,,,,,,,,,,,,b'\xff',b'\xff',b'\xff',b'\xff',
-1,-1,4294967.2950,,,,,,,,,,,,,,,,,,,,,,,,,,,b'\xff',b'\xff',b'\xff',b'\xff',
-1,-1,4294967.2950,,,,,,,,,,,,,,,,,,,,,,,,,,,b'\xff',b'\xff',b'\xff',b'\xff',
-1,-1,4294967.2950,,,,,,,,,,,,,,,,,,,,,,,,,,,b'\xff',b'\xff',b'\xff',b'\xff',
-1,-1,4294967.2950,,,,,,,,,,,,,,,,,,,,,,,,,,,b'\xff',b'\xff',b'\xff',b'\xff',
-1,-1,4294967.2950,,,,,,,,,,,,,,,,,,,,,,,,,,,b'\xff',b'\xff',b'\xff',b'\xff',
-1,-1,4294967.2950,,,,,,,,,,,,,,,,,,,,,,,,,,,b'\xff',b'\xff',b'\xff',b'\xff',
-1,-1,4294967.2950,,,,,,,,,,,,,,,,,,,,,,,,,,,b'\xff',b'\xff',b'\xff',b'\xff',
-1,-1,4294967.2950,,,,,,,,,,,,,,,,,,,,,,,,,,,b'\xff',b'\xff',b'\xff',b'\xff',
-1,-1,4294967.2950,,,,,,,,,,,,,,,,,,,,,,,,,,,b'\xff',b'\xff',b'\xff',b'\xff',
-1,-1,4294967.2950,,,,,,,,,,,,,,,,,,,,,,,,,,,b'\xff',b'\xff',b'\xff',b'\xff',
-1,-1,4294967.2950,,,,,,,,,,,,,,,,,,,,,,,,,,,b'\xff',b'\xff',b'\xff',b'\xff',
-1,-1,4294967.2950,,,,,,,,,,,,,,,,,,,,,,,,,,,b'\xff',b'\xff',b'\xff',b'\xff',
-1,-1,4294967.2950,,,,,,,,,,,,,,,,,,,,,,,,,,,b'\xff',b'\xff',b'\xff',b'\xff',
-1,-1,4294967.2950,,,,,,,,,,,,,,,,,,,,,,,,,,,b'\xff',b'\xff',b'\xff',b'\xff',
-1,-1,4294967.2950,,,,,,,,,,,,,,,,,,,,,,,,,,,b'\xff',b'\xff',b'\xff',b'\xff',
-1,-1,4294967.2950,,,,,,,,,,,,,,,,,,,,,,,,,,,b'\xff',b'\xff',b'\xff',b'\xff',
-1,-1,4294967.2950,,,,,,,,,,,,,,,,,,,,,,,,,,,b'\xff',b'\xff',b'\xff',b'\xff',
-1,-1,4294967.2950,,,,,,,,,,,,,,,,,,,,,,,,,,,b'\xff',b'\xff',b'\xff',b'\xff',
-1,-1,4294967.2950,,,,,,,,,,,,,,,,,,,,,,,,,,,b'\xff',b'\xff',b'\xff',b'\xff',
-1,-1,4294967.2950,,,,,,,,,,,,,,,,,,,,,,,,,,,b'\xff',b'\xff',b'\xff',b'\xff',
-1,-1,4294967.2950,,,,,,,,,,,,,,,,,,,,,,,,,,,b'\xff',b'\xff',b'\xff',b'\xff',
-1,-1,4294967.2950,,,,,,,,,,,,,,,,,,,,,,,,,,,b'\xff',b'\xff',b'\xff',b'\xff',
-1,-1,4294967.2950,,,,,,,,,,,,,,,,,,,,,,,,,,,b'\xff',b'\xff',b'\xff',b'\xff',
-1,-1,4294967.2950,,,,,,,,,,,,,,,,,,,,,,,,,,,b'\xff',b'\xff',b'\xff',b'\xff',
-1,-1,4294967.2950,,,,,,,,,,,,,,,,,,,,,,,,,,,b'\xff',b'\xff',b'\xff',b'\xff',
-1,-1,4294967.2950,,,,,,,,,,,,,,,,,,,,,,,,,,,b'\xff',b'\xff',b'\xff',b'\xff',
-1,-1,4294967.2950,,,,,,,,,,,,,,,,,,,,,,,,,,,b'\xff',b'\xff',b'\xff',b'\xff',
-1,-1,4294967.2950,,,,,,,,,,,,,,,,,,,,,,,,,,,b'\xff',b'\xff',b'\xff',b'\xff',
-1,-1,4294967.2950,,,,,,,,,,,,,,,,,,,,,,,,,,,b'\xff',b'\xff',b'\xff',b'\xff',
-1,-1,4294967.2950,,,,,,,,,,,,,,,,,,,,,,,,,,,b'\xff',b'\xff',b'\xff',b'\xff',
-1,-1,4294967.2950,,,,,,,,,,,,,,,,,,,,,,,,,,,b'\xff',b'\xff',b'\xff',b'\xff',
-1,-1,4294967.2950,,,,,,,,,,,,,,,,,,,,,,,,,,,b'\xff',b'\xff',b'\xff',b'\xff',
-1,-1,4294967.2950,,,,,,,,,,,,,,,,,,,,,,,,,,,b'\xff',b'\xff',b'\xff',b'\xff',
-1,-1,4294967.2950,,,,,,,,,,,,,,,,,,,,,,,,,,,b'\xff',b'\xff',b'\xff',b'\xff',
-1,-1,4294967.2950,,,,,,,,,,,,,,,,,,,,,,,,,,,b'\xff',b'\xff',b'\xff',b'\xff',
-1,-1,4294967.2950,,,,,,,,,,,,,,,,,,,,,,,,,,,b'\xff',b'\xff',b'\xff',b'\xff',
-1,-1,4294967.2950,,,,,,,,,,,,,,,,,,,,,,,,,,,b'\xff',b'\xff',b'\xff',b'\xff',
-1,-1,4294967.2950,,,,,,,,,,,,,,,,,,,,,,,,,,,b'\xff',b'\xff',b'\xff',b'\xff',
-1,-1,4294967.2950,,,,,,,,,,,,,,,,,,,,,,,,,,,b'\xff',b'\xff',b'\xff',b'\xff',
-1,-1,4294967.2950,,,,,,,,,,,,,,,,,,,,,,,,,,,b'\xff',b'\xff',b'\xff',b'\xff',
-1,-1,4294967.2950,,,,,,,,,,,,,,,,,,,,,,,,,,,b'\xff',b'\xff',b'\xff',b'\xff',
-1,-1,4294967.2950,,,,,,,,,,,,,,,,,,,,,,,,,,,b'\xff',b'\xff',b'\xff',b'\xff',
-1,-1,4294967.2950,,,,,,,,,,,,,,,,,,,,,,,,,,,b'\xff',b'\xff',b'\xff',b'\xff',
-1,-1,4294967.2950,,,,,,,,,,,,,,,,,,,,,,,,,,,b'\xff',b'\xff',b'\xff',b'\xff',
-1,-1,4294967.2950,,,,,,,,,,,,,,,,,,,,,,,,,,,b'\xff',b'\xff',b'\xff',b'\xff',
-1,-1,4294967.2950,,,,,,,,,,,,,,,,,,,,,,,,,,,b'\xff',b'\xff',b'\xff',b'\xff',
-1,-1,4294967.2950,,,,,,,,,,,,,,,,,,,,,,,,,,,b'\xff',b'\xff',b'\xff',b'\xff',
-1,-1,4294967.2950,,,,,,,,,,,,,,,,,,,,,,,,,,,b'\xff',b'\xff',b'\xff',b'\xff',
-1,-1,4294967.2950,,,,,,,,,,,,,,,,,,,,,,,,,,,b'\xff',b'\xff',b'\xff',b'\xff',
-1,-1,4294967.2950,,,,,,,,,,,,,,,,,,,,,,,,,,,b'\xff',b'\xff',b'\xff',b'\xff',
-1,-1,4294967.2950,,,,,,,,,,,,,,,,,,,,,,,,,,,b'\xff',b'\xff',b'\xff',b'\xff',
-1,-1,4294967.2950,,,,,,,,,,,,,,,,,,,,,,,,,,,b'\xff',b'\xff',b'\xff',b'\xff',
-1,-1,4294967.2950,,,,,,,,,,,,,,,,,,,,,,,,,,,b'\xff',b'\xff',b'\xff',b'\xff',
-1,-1,4294967.2950,,,,,,,,,,,,,,,,,,,,,,,,,,,b'\xff',b'\xff',b'\xff',b'\xff',
-1,-1,4294967.2950,,,,,,,,,,,,,,,,,,,,,,,,,,,b'\xff',b'\xff',b'\xff',b'\xff',
-1,-1,4294967.2950,,,,,,,,,,,,,,,,,,,,,,,,,,,b'\xff',b'\xff',b'\xff',b'\xff',
-1,-1,4294967.2950,,,,,,,,,,,,,,,,,,,,,,,,,,,b'\xff',b'\xff',b'\xff',b'\xff',
-1,-1,4294967.2950,,,,,,,,,,,,,,,,,,,,,,,,,,,b'\xff',b'\xff',b'\xff',b'\xff',
-1,-1,4294967.2950,,,,,,,,,,,,,,,,,,,,,,,,,,,b'\xff',b'\xff',b'\xff',b'\xff',
-1,-1,4294967.2950,,,,,,,,,,,,,,,,,,,,,,,,,,,b'\xff',b'\xff',b'\xff',b'\xff',
-1,-1,4294967.2950,,,,,,,,,,,,,,,,,,,,,,,,,,,b'\xff',b'\xff',b'\xff',b'\xff',
-1,-1,4294967.2950,,,,,,,,,,,,,,,,,,,,,,,,,,,b'\xff',b'\xff',b'\xff',b'\xff',
-1,-1,4294967.2950,,,,,,,,,,,,,,,,,,,,,,,,,,,b'\xff',b'\xff',b'\xff',b'\xff',
-1,-1,4294967.2950,,,,,,,,,,,,,,,,,,,,,,,,,,,b'\xff',b'\xff',b'\xff',b'\xff',
-1,-1,4294967.2950,,,,,,,,,,,,,,,,,,,,,,,,,,,b'\xff',b'\xff',b'\xff',b'\xff',
-1,-1,4294967.2950,,,,,,,,,,,,,,,,,,,,,,,,,,,b'\xff',b'\xff',b'\xff',b'\xff',
-1,-1,4294967.2950,,,,,,,,,,,,,,,,,,,,,,,,,,,b'\xff',b'\xff',b'\xff',b'\xff',
-1,-1,4294967.2950,,,,,,,,,,,,,,,,,,,,,,,,,,,b'\xff',b'\xff',b'\xff',b'\xff',
-1,-1,4294967.2950,,,,,,,,,,,,,,,,,,,,,,,,,,,b'\xff',b'\xff',b'\xff',b'\xff',
-1,-1,4294967.2950,,,,,,,,,,,,,,,,,,,,,,,,,,,b'\xff',b'\xff',b'\xff',b'\xff',
-1,-1,4294967.2950,,,,,,,,,,,,,,,,,,,,,,,,,,,b'\xff',b'\xff',b'\xff',b'\xff',
-1,-1,4294967.2950,,,,,,,,,,,,,,,,,,,,,,,,,,,b'\xff',b'\xff',b'\xff',b'\xff',
-1,-1,4294967.2950,,,,,,,,,,,,,,,,,,,,,,,,,,,b'\xff',b'\xff',b'\xff',b'\xff',
-1,-1,4294967.2950,,,,,,,,,,,,,,,,,,,,,,,,,,,b'\xff',b'\xff',b'\xff',b'\xff',
-1,-1,4294967.2950,,,,,,,,,,,,,,,,,,,,,,,,,,,b'\xff',b'\xff',b'\xff',b'\xff',
-1,-1,4294967.2950,,,,,,,,,,,,,,,,,,,,,,,,,,,b'\xff',b'\xff',b'\xff',b'\xff',
-1,-1,4294967.2950,,,,,,,,,,,,,,,,,,,,,,,,,,,b'\xff',b'\xff',b'\xff',b'\xff',
-1,-1,4294967.2950,,,,,,,,,,,,,,,,,,,,,,,,,,,b'\xff',b'\xff',b'\xff',b'\xff',
-1,-1,4294967.2950,,,,,,,,,,,,,,,,,,,,,,,,,,,b'\xff',b'\xff',b'\xff',b'\xff',
-1,-1,4294967.2950,,,,,,,,,,,,,,,,,,,,,,,,,,,b'\xff',b'\xff',b'\xff',b'\xff',
-1,-1,4294967.2950,,,,,,,,,,,,,,,,,,,,,,,,,,,b'\xff',b'\xff',b'\xff',b'\xff',
-1,-1,4294967.2950,,,,,,,,,,,,,,,,,,,,,,,,,,,b'\xff',b'\xff',b'\xff',b'\xff',
-1,-1,4294967.2950,,,,,,,,,,,,,,,,,,,,,,,,,,,b'\xff',b'\xff',b'\xff',b'\xff',
-1,-1,4294967.2950,,,,,,,,,,,,,,,,,,,,,,,,,,,b'\xff',b'\xff',b'\xff',b'\xff',
-1,-1,4294967.2950,,,,,,,,,,,,,,,,,,,,,,,,,,,b'\xff',b'\xff',b'\xff',b'\xff',
-1,-1,4294967.2950,,,,,,,,,,,,,,,,,,,,,,,,,,,b'\xff',b'\xff',b'\xff',b'\xff',
-1,-1,4294967.2950,,,,,,,,,,,,,,,,,,,,,,,,,,,b'\xff',b'\xff',b'\xff',b'\xff',
-1,-1,4294967.2950,,,,,,,,,,,,,,,,,,,,,,,,,,,b'\xff',b'\xff',b'\xff',b'\xff',
-1,-1,4294967.2950,,,,,,,,,,,,,,,,,,,,,,,,,,,b'\xff',b'\xff',b'\xff',b'\xff',
-1,-1,4294967.2950,,,,,,,,,,,,,,,,,,,,,,,,,,,b'\xff',b'\xff',b'\xff',b'\xff',
-1,-1,4294967.2950,,,,,,,,,,,,,,,,,,,,,,,,,,,b'\xff',b'\xff',b'\xff',b'\xff',
-1,-1,4294967.2950,,,,,,,,,,,,,,,,,,,,,,,,,,,b'\xff',b'\xff',b'\xff',b'\xff',
-1,-1,4294967.2950,,,,,,,,,,,,,,,,,,,,,,,,,,,b'\xff',b'\xff',b'\xff',b'\xff',
-1,-1,4294967.2950,,,,,,,,,,,,,,,,,,,,,,,,,,,b'\xff',b'\xff',b'\xff',b'\xff',
-1,-1,4294967.2950,,,,,,,,,,,,,,,,,,,,,,,,,,,b'\xff',b'\xff',b'\xff',b'\xff',
-1,-1,4294967.2950,,,,,,,,,,,,,,,,,,,,,,,,,,,b'\xff',b'\xff',b'\xff',b'\xff',
-1,-1,4294967.2950,,,,,,,,,,,,,,,,,,,,,,,,,,,b'\xff',b'\xff',b'\xff',b'\xff',
-1,-1,4294967.2950,,,,,,,,,,,,,,,,,,,,,,,,,,,b'\xff',b'\xff',b'\xff',b'\xff',
-1,-1,4294967.2950,,,,,,,,,,,,,,,,,,,,,,,,,,,b'\xff',b'\xff',b'\xff',b'\xff',
-1,-1,4294967.2950,,,,,,,,,,,,,,,,,,,,,,,,,,,b'\xff',b'\xff',b'\xff',b'\xff',
-1,-1,4294967.2950,,,,,,,,,,,,,,,,,,,,,,,,,,,b'\xff',b'\xff',b'\xff',b'\xff',
-1,-1,4294967.2950,,,,,,,,,,,,,,,,,,,,,,,,,,,b'\xff',b'\xff',b'\xff',b'\xff',
-1,-1,4294967.2950,,,,,,,,,,,,,,,,,,,,,,,,,,,b'\xff',b'\xff',b'\xff',b'\xff',
-1,-1,4294967.2950,,,,,,,,,,,,,,,,,,,,,,,,,,,b'\xff',b'\xff',b'\xff',b'\xff',
-1,-1,4294967.2950,,,,,,,,,,,,,,,,,,,,,,,,,,,b'\xff',b'\xff',b'\xff',b'\xff',
-1,-1,4294967.2950,,,,,,,,,,,,,,,,,,,,,,,,,,,b'\xff',b'\xff',b'\xff',b'\xff',
-1,-1,4294967.2950,,,,,,,,,,,,,,,,,,,,,,,,,,,b'\xff',b'\xff',b'\xff',b'\xff',
-1,-1,4294967.2950,,,,,,,,,,,,,,,,,,,,,,,,,,,b'\xff',b'\xff',b'\xff',b'\xff',
-1,-1,4294967.2950,,,,,,,,,,,,,,,,,,,,,,,,,,,b'\xff',b'\xff',b'\xff',b'\xff',
-1,-1,4294967.2950,,,,,,,,,,,,,,,,,,,,,,,,,,,b'\xff',b'\xff',b'\xff',b'\xff',
-1,-1,4294967.2950,,,,,,,,,,,,,,,,,,,,,,,,,,,b'\xff',b'\xff',b'\xff',b'\xff',
-1,-1,4294967.2950,,,,,,,,,,,,,,,,,,,,,,,,,,,b'\xff',b'\xff',b'\xff',b'\xff',
-1,-1,4294967.2950,,,,,,,,,,,,,,,,,,,,,,,,,,,b'\xff',b'\xff',b'\xff',b'\xff',
-1,-1,4294967.2950,,,,,,,,,,,,,,,,,,,,,,,,,,,b'\xff',b'\xff',b'\xff',b'\xff',
-1,-1,4294967.2950,,,,,,,,,,,,,,,,,,,,,,,,,,,b'\xff',b'\xff',b'\xff',b'\xff',
-1,-1,4294967.2950,,,,,,,,,,,,,,,,,,,,,,,,,,,b'\xff',b'\xff',b'\xff',b'\xff',
-1,-1,4294967.2950,,,,,,,,,,,,,,,,,,,,,,,,,,,b'\xff',b'\xff',b'\xff',b'\xff',
-1,-1,4294967.2950,,,,,,,,,,,,,,,,,,,,,,,,,,,b'\xff',b'\xff',b'\xff',b'\xff',
-1,-1,4294967.2950,,,,,,,,,,,,,,,,,,,,,,,,,,,b'\xff',b'\xff',b'\xff',b'\xff',
-1,-1,4294967.2950,,,,,,,,,,,,,,,,,,,,,,,,,,,b'\xff',b'\xff',b'\xff',b'\xff',
-1,-1,4294967.2950,,,,,,,,,,,,,,,,,,,,,,,,,,,b'\xff',b'\xff',b'\xff',b'\xff',
-1,-1,4294967.2950,,,,,,,,,,,,,,,,,,,,,,,,,,,b'\xff',b'\xff',b'\xff',b'\xff',
-1,-1,4294967.2950,,,,,,,,,,,,,,,,,,,,,,,,,,,b'\xff',b'\xff',b'\xff',b'\xff',
-1,-1,4294967.2950,,,,,,,,,,,,,,,,,,,,,,,,,,,b'\xff',b'\xff',b'\xff',b'\xff',
-1,-1,4294967.2950,,,,,,,,,,,,,,,,,,,,,,,,,,,b'\xff',b'\xff',b'\xff',b'\xff',
-1,-1,4294967.2950,,,,,,,,,,,,,,,,,,,,,,,,,,,b'\xff',b'\xff',b'\xff',b'\xff',
-1,-1,4294967.2950,,,,,,,,,,,,,,,,,,,,,,,,,,,b'\xff',b'\xff',b'\xff',b'\xff',
-1,-1,4294967.2950,,,,,,,,,,,,,,,,,,,,,,,,,,,b'\xff',b'\xff',b'\xff',b'\xff',
-1,-1,4294967.2950,,,,,,,,,,,,,,,,,,,,,,,,,,,b'\xff',b'\xff',b'\xff',b'\xff',
-1,-1,4294967.2950,,,,,,,,,,,,,,,,,,,,,,,,,,,b'\xff',b'\xff',b'\xff',b'\xff',
-1,-1,4294967.2950,,,,,,,,,,,,,,,,,,,,,,,,,,,b'\xff',b'\xff',b'\xff',b'\xff',
-1,-1,4294967.2950,,,,,,,,,,,,,,,,,,,,,,,,,,,b'\xff',b'\xff',b'\xff',b'\xff',
-1,-1,4294967.2950,,,,,,,,,,,,,,,,,,,,,,,,,,,b'\xff',b'\xff',b'\xff',b'\xff',
-1,-1,4294967.2950,,,,,,,,,,,,,,,,,,,,,,,,,,,b'\xff',b'\xff',b'\xff',b'\xff',
-1,-1,4294967.2950,,,,,,,,,,,,,,,,,,,,,,,,,,,b'\xff',b'\xff',b'\xff',b'\xff',
-1,-1,4294967.2950,,,,,,,,,,,,,,,,,,,,,,,,,,,b'\xff',b'\xff',b'\xff',b'\xff',
-1,-1,4294967.2950,,,,,,,,,,,,,,,,,,,,,,,,,,,b'\xff',b'\xff',b'\xff',b'\xff',
-1,-1,4294967.2950,,,,,,,,,,,,,,,,,,,,,,,,,,,b'\xff',b'\xff',b'\xff',b'\xff',
-1,-1,4294967.2950,,,,,,,,,,,,,,,,,,,,,,,,,,,b'\xff',b'\xff',b'\xff',b'\xff',
-1,-1,4294967.2950,,,,,,,,,,,,,,,,,,,,,,,,,,,b'\xff',b'\xff',b'\xff',b'\xff',
-1,-1,4294967.2950,,,,,,,,,,,,,,,,,,,,,,,,,,,b'\xff',b'\xff',b'\xff',b'\xff',
-1,-1,4294967.2950,,,,,,,,,,,,,,,,,,,,,,,,,,,b'\xff',b'\xff',b'\xff',b'\xff',
-1,-1,4294967.2950,,,,,,,,,,,,,,,,,,,,,,,,,,,b'\xff',b'\xff',b'\xff',b'\xff',
-1,-1,4294967.2950,,,,,,,,,,,,,,,,,,,,,,,,,,,b'\xff',b'\xff',b'\xff',b'\xff',
-1,-1,4294967.2950,,,,,,,,,,,,,,,,,,,,,,,,,,,b'\xff',b'\xff',b'\xff',b'\xff',
-1,-1,4294967.2950,,,,,,,,,,,,,,,,,,,,,,,,,,,b'\xff',b'\xff',b'\xff',b'\xff',
-1,-1,4294967.2950,,,,,,,,,,,,,,,,,,,,,,,,,,,b'\xff',b'\xff',b'\xff',b'\xff',
-1,-1,4294967.2950,,,,,,,,,,,,,,,,,,,,,,,,,,,b'\xff',b'\xff',b'\xff',b'\xff',
-1,-1,4294967.2950,,,,,,,,,,,,,,,,,,,,,,,,,,,b'\xff',b'\xff',b'\xff',b'\xff',
-1,-1,4294967.2950,,,,,,,,,,,,,,,,,,,,,,,,,,,b'\xff',b'\xff',b'\xff',b'\xff',
-1,-1,4294967.2950,,,,,,,,,,,,,,,,,,,,,,,,,,,b'\xff',b'\xff',b'\xff',b'\xff',
-1,-1,4294967.2950,,,,,,,,,,,,,,,,,,,,,,,,,,,b'\xff',b'\xff',b'\xff',b'\xff',
-1,-1,4294967.2950,,,,,,,,,,,,,,,,,,,,,,,,,,,b'\xff',b'\xff',b'\xff',b'\xff',
-1,-1,4294967.2950,,,,,,,,,,,,,,,,,,,,,,,,,,,b'\xff',b'\xff',b'\xff',b'\xff',
-1,-1,4294967.2950,,,,,,,,,,,,,,,,,,,,,,,,,,,b'\xff',b'\xff',b'\xff',b'\xff',
-1,-1,4294967.2950,,,,,,,,,,,,,,,,,,,,,,,,,,,b'\xff',b'\xff',b'\xff',b'\xff',
-1,-1,4294967.2950,,,,,,,,,,,,,,,,,,,,,,,,,,,b'\xff',b'\xff',b'\xff',b'\xff',
-1,-1,4294967.2950,,,,,,,,,,,,,,,,,,,,,,,,,,,b'\xff',b'\xff',b'\xff',b'\xff',
-1,-1,4294967.2950,,,,,,,,,,,,,,,,,,,,,,,,,,,b'\xff',b'\xff',b'\xff',b'\xff',
-1,-1,4294967.2950,,,,,,,,,,,,,,,,,,,,,,,,,,,b'\xff',b'\xff',b'\xff',b'\xff',
-1,-1,4294967.2950,,,,,,,,,,,,,,,,,,,,,,,,,,,b'\xff',b'\xff',b'\xff',b'\xff',
-1,-1,4294967.2950,,,,,,,,,,,,,,,,,,,,,,,,,,,b'\xff',b'\xff',b'\xff',b'\xff',
-1,-1,4294967.2950,,,,,,,,,,,,,,,,,,,,,,,,,,,b'\xff',b'\xff',b'\xff',b'\xff',
-1,-1,4294967.2950,,,,,,,,,,,,,,,,,,,,,,,,,,,b'\xff',b'\xff',b'\xff',b'\xff',
-1,-1,4294967.2950,,,,,,,,,,,,,,,,,,,,,,,,,,,b'\xff',b'\xff',b'\xff',b'\xff',
-1,-1,4294967.2950,,,,,,,,,,,,,,,,,,,,,,,,,,,b'\xff',b'\xff',b'\xff',b'\xff',
-1,-1,4294967.2950,,,,,,,,,,,,,,,,,,,,,,,,,,,b'\xff',b'\xff',b'\xff',b'\xff',
-1,-1,4294967.2950,,,,,,,,,,,,,,,,,,,,,,,,,,,b'\xff',b'\xff',b'\xff',b'\xff',
-1,-1,4294967.2950,,,,,,,,,,,,,,,,,,,,,,,,,,,b'\xff',b'\xff',b'\xff',b'\xff',
-1,-1,4294967.2950,,,,,,,,,,,,,,,,,,,,,,,,,,,b'\xff',b'\xff',b'\xff',b'\xff',
-1,-1,4294967.2950,,,,,,,,,,,,,,,,,,,,,,,,,,,b'\xff',b'\xff',b'\xff',b'\xff',
-1,-1,4294967.2950,,,,,,,,,,,,,,,,,,,,,,,,,,,b'\xff',b'\xff',b'\xff',b'\xff',
-1,-1,4294967.2950,,,,,,,,,,,,,,,,,,,,,,,,,,,b'\xff',b'\xff',b'\xff',b'\xff',
-1,-1,4294967.2950,,,,,,,,,,,,,,,,,,,,,,,,,,,b'\xff',b'\xff',b'\xff',b'\xff',
-1,-1,4294967.2950,,,,,,,,,,,,,,,,,,,,,,,,,,,b'\xff',b'\xff',b'\xff',b'\xff',
-1,-1,4294967.2950,,,,,,,,,,,,,,,,,,,,,,,,,,,b'\xff',b'\xff',b'\xff',b'\xff',
-1,-1,4294967.2950,,,,,,,,,,,,,,,,,,,,,,,,,,,b'\xff',b'\xff',b'\xff',b'\xff',
-1,-1,4294967.2950,,,,,,,,,,,,,,,,,,,,,,,,,,,b'\xff',b'\xff',b'\xff',b'\xff',
-1,-1,4294967.2950,,,,,,,,,,,,,,,,,,,,,,,,,,,b'\xff',b'\xff',b'\xff',b'\xff',
-1,-1,4294967.2950,,,,,,,,,,,,,,,,,,,,,,,,,,,b'\xff',b'\xff',b'\xff',b'\xff',
-1,-1,4294967.2950,,,,,,,,,,,,,,,,,,,,,,,,,,,b'\xff',b'\xff',b'\xff',b'\xff',
-1,-1,4294967.2950,,,,,,,,,,,,,,,,,,,,,,,,,,,b'\xff',b'\xff',b'\xff',b'\xff',
-1,-1,4294967.2950,,,,,,,,,,,,,,,,,,,,,,,,,,,b'\xff',b'\xff',b'\xff',b'\xff',
-1,-1,4294967.2950,,,,,,,,,,,,,,,,,,,,,,,,,,,b'\xff',b'\xff',b'\xff',b'\xff',
-1,-1,4294967.2950,,,,,,,,,,,,,,,,,,,,,,,,,,,b'\xff',b'\xff',b'\xff',b'\xff',
-1,-1,4294967.2950,,,,,,,,,,,,,,,,,,,,,,,,,,,b'\xff',b'\xff',b'\xff',b'\xff',
-1,-1,4294967.2950,,,,,,,,,,,,,,,,,,,,,,,,,,,b'\xff',b'\xff',b'\xff',b'\xff',
-1,-1,4294967.2950,,,,,,,,,,,,,,,,,,,,,,,,,,,b'\xff',b'\xff',b'\xff',b'\xff',
-1,-1,4294967.2950,,,,,,,,,,,,,,,,,,,,,,,,,,,b'\xff',b'\xff',b'\xff',b'\xff',
-1,-1,4294967.2950,,,,,,,,,,,,,,,,,,,,,,,,,,,b'\xff',b'\xff',b'\xff',b'\xff',
-1,-1,4294967.2950,,,,,,,,,,,,,,,,,,,,,,,,,,,b'\xff',b'\xff',b'\xff',b'\xff',
-1,-1,4294967.2950,,,,,,,,,,,,,,,,,,,,,,,,,,,b'\xff',b'\xff',b'\xff',b'\xff',
-1,-1,4294967.2950,,,,,,,,,,,,,,,,,,,,,,,,,,,b'\xff',b'\xff',b'\xff',b'\xff',
-1,-1,4294967.2950,,,,,,,,,,,,,,,,,,,,,,,,,,,b'\xff',b'\xff',b'\xff',b'\xff',
-1,-1,4294967.2950,,,,,,,,,,,,,,,,,,,,,,,,,,,b'\xff',b'\xff',b'\xff',b'\xff',
-1,-1,4294967.2950,,,,,,,,,,,,,,,,,,,,,,,,,,,b'\xff',b'\xff',b'\xff',b'\xff',
-1,-1,4294967.2950,,,,,,,,,,,,,,,,,,,,,,,,,,,b'\xff',b'\xff',b'\xff',b'\xff',
-1,-1,4294967.2950,,,,,,,,,,,,,,,,,,,,,,,,,,,b'\xff',b'\xff',b'\xff',b'\xff',
-1,-1,4294967.2950,,,,,,,,,,,,,,,,,,,,,,,,,,,b'\xff',b'\xff',b'\xff',b'\xff',
-1,-1,4294967.2950,,,,,,,,,,,,,,,,,,,,,,,,,,,b'\xff',b'\xff',b'\xff',b'\xff',
-1,-1,4294967.2950,,,,,,,,,,,,,,,,,,,,,,,,,,,b'\xff',b'\xff',b'\xff',b'\xff',
-1,-1,4294967.2950,,,,,,,,,,,,,,,,,,,,,,,,,,,b'\xff',b'\xff',b'\xff',b'\xff',
-1,-1,4294967.2950,,,,,,,,,,,,,,,,,,,,,,,,,,,b'\xff',b'\xff',b'\xff',b'\xff',
-1,-1,4294967.2950,,,,,,,,,,,,,,,,,,,,,,,,,,,b'\xff',b'\xff',b'\xff',b'\xff',
-1,-1,4294967.2950,,,,,,,,,,,,,,,,,,,,,,,,,,,b'\xff',b'\xff',b'\xff',b'\xff',
-1,-1,4294967.2950,,,,,,,,,,,,,,,,,,,,,,,,,,,b'\xff',b'\xff',b'\xff',b'\xff',
-1,-1,4294967.2950,,,,,,,,,,,,,,,,,,,,,,,,,,,b'\xff',b'\xff',b'\xff',b'\xff',
-1,-1,4294967.2950,,,,,,,,,,,,,,,,,,,,,,,,,,,b'\xff',b'\xff',b'\xff',b'\xff',
-1,-1,4294967.2950,,,,,,,,,,,,,,,,,,,,,,,,,,,b'\xff',b'\xff',b'\xff',b'\xff',
-1,-1,4294967.2950,,,,,,,,,,,,,,,,,,,,,,,,,,,b'\xff',b'\xff',b'\xff',b'\xff',
-1,-1,4294967.2950,,,,,,,,,,,,,,,,,,,,,,,,,,,b'\xff',b'\xff',b'\xff',b'\xff',
-1,-1,4294967.2950,,,,,,,,,,,,,,,,,,,,,,,,,,,b'\xff',b'\xff',b'\xff',b'\xff',
-1,-1,4294967.2950,,,,,,,,,,,,,,,,,,,,,,,,,,,b'\xff',b'\xff',b'\xff',b'\xff',
-1,-1,4294967.2950,,,,,,,,,,,,,,,,,,,,,,,,,,,b'\xff',b'\xff',b'\xff',b'\xff',
-1,-1,4294967.2950,,,,,,,,,,,,,,,,,,,,,,,,,,,b'\xff',b'\xff',b'\xff',b'\xff',
-1,-1,4294967.2950,,,,,,,,,,,,,,,,,,,,,,,,,,,b'\xff',b'\xff',b'\xff',b'\xff',
-1,-1,4294967.2950,,,,,,,,,,,,,,,,,,,,,,,,,,,b'\xff',b'\xff',b'\xff',b'\xff',
-1,-1,4294967.2950,,,,,,,,,,,,,,,,,,,,,,,,,,,b'\xff',b'\xff',b'\xff',b'\xff',
-1,-1,4294967.2950,,,,,,,,,,,,,,,,,,,,,,,,,,,b'\xff',b'\xff',b'\xff',b'\xff',
-1,-1,4294967.2950,,,,,,,,,,,,,,,,,,,,,,,,,,,b'\xff',b'\xff',b'\xff',b'\xff',
-1,-1,4294967.2950,,,,,,,,,,,,,,,,,,,,,,,,,,,b'\xff',b'\xff',b'\xff',b'\xff',
-1,-1,4294967.2950,,,,,,,,,,,,,,,,,,,,,,,,,,,b'\xff',b'\xff',b'\xff',b'\xff',
-1,-1,4294967.2950,,,,,,,,,,,,,,,,,,,,,,,,,,,b'\xff',b'\xff',b'\xff',b'\xff',
-1,-1,4294967.2950,,,,,,,,,,,,,,,,,,,,,,,,,,,b'\xff',b'\xff',b'\xff',b'\xff',
-1,-1,4294967.2950,,,,,,,,,,,,,,,,,,,,,,,,,,,b'\xff',b'\xff',b'\xff',b'\xff',
-1,-1,4294967.2950,,,,,,,,,,,,,,,,,,,,,,,,,,,b'\xff',b'\xff',b'\xff',b'\xff',
-1,-1,4294967.2950,,,,,,,,,,,,,,,,,,,,,,,,,,,b'\xff',b'\xff',b'\xff',b'\xff',
-1,-1,4294967.2950,,,,,,,,,,,,,,,,,,,,,,,,,,,b'\xff',b'\xff',b'\xff',b'\xff',
-1,-1,4294967.2950,,,,,,,,,,,,,,,,,,,,,,,,,,,b'\xff',b'\xff',b'\xff',b'\xff',
-1,-1,4294967.2950,,,,,,,,,,,,,,,,,,,,,,,,,,,b'\xff',b'\xff',b'\xff',b'\xff',
-1,-1,4294967.2950,,,,,,,,,,,,,,,,,,,,,,,,,,,b'\xff',b'\xff',b'\xff',b'\xff',
-1,-1,4294967.2950,,,,,,,,,,,,,,,,,,,,,,,,,,,b'\xff',b'\xff',b'\xff',b'\xff',
-1,-1,4294967.2950,,,,,,,,,,,,,,,,,,,,,,,,,,,b'\xff',b'\xff',b'\xff',b'\xff',
-1,-1,4294967.2950,,,,,,,,,,,,,,,,,,,,,,,,,,,b'\xff',b'\xff',b'\xff',b'\xff',
-1,-1,4294967.2950,,,,,,,,,,,,,,,,,,,,,,,,,,,b'\xff',b'\xff',b'\xff',b'\xff',
-1,-1,4294967.2950,,,,,,,,,,,,,,,,,,,,,,,,,,,b'\xff',b'\xff',b'\xff',b'\xff',
-1,-1,4294967.2950,,,,,,,,,,,,,,,,,,,,,,,,,,,b'\xff',b'\xff',b'\xff',b'\xff',
-1,-1,4294967.2950,,,,,,,,,,,,,,,,,,,,,,,,,,,b'\xff',b'\xff',b'\xff',b'\xff',
-1,-1,4294967.2950,,,,,,,,,,,,,,,,,,,,,,,,,,,b'\xff',b'\xff',b'\xff',b'\xff',
-1,-1,4294967.2950,,,,,,,,,,,,,,,,,,,,,,,,,,,b'\xff',b'\xff',b'\xff',b'\xff',
-1,-1,4294967.2950,,,,,,,,,,,,,,,,,,,,,,,,,,,b'\xff',b'\xff',b'\xff',b'\xff',
-1,-1,4294967.2950,,,,,,,,,,,,,,,,,,,,,,,,,,,b'\xff',b'\xff',b'\xff',b'\xff',
-1,-1,4294967.2950,,,,,,,,,,,,,,,,,,,,,,,,,,,b'\xff',b'\xff',b'\xff',b'\xff',
-1,-1,4294967.2950,,,,,,,,,,,,,,,,,,,,,,,,,,,b'\xff',b'\xff',b'\xff',b'\xff',
-1,-1,4294967.2950,,,,,,,,,,,,,,,,,,,,,,,,,,,b'\xff',b'\xff',b'\xff',b'\xff',
-1,-1,4294967.2950,,,,,,,,,,,,,,,,,,,,,,,,,,,b'\xff',b'\xff',b'\xff',b'\xff',
-1,-1,4294967.2950,,,,,,,,,,,,,,,,,,,,,,,,,,,b'\xff',b'\xff',b'\xff',b'\xff',
-1,-1,4294967.2950,,,,,,,,,,,,,,,,,,,,,,,,,,,b'\xff',b'\xff',b'\xff',b'\xff',
-1,-1,4294967.2950,,,,,,,,,,,,,,,,,,,,,,,,,,,b'\xff',b'\xff',b'\xff',b'\xff',
-1,-1,4294967.2950,,,,,,,,,,,,,,,,,,,,,,,,,,,b'\xff',b'\xff',b'\xff',b'\xff',
-1,-1,4294967.2950,,,,,,,,,,,,,,,,,,,,,,,,,,,b'\xff',b'\xff',b'\xff',b'\xff',
-1,-1,4294967.2950,,,,,,,,,,,,,,,,,,,,,,,,,,,b'\xff',b'\xff',b'\xff',b'\xff',
-1,-1,4294967.2950,,,,,,,,,,,,,,,,,,,,,,,,,,,b'\xff',b'\xff',b'\xff',b'\xff',
-1,-1,4294967.2950,,,,,,,,,,,,,,,,,,,,,,,,,,,b'\xff',b'\xff',b'\xff',b'\xff',
-1,-1,4294967.2950,,,,,,,,,,,,,,,,,,,,,,,,,,,b'\xff',b'\xff',b'\xff',b'\xff',
-1,-1,4294967.2950,,,,,,,,,,,,,,,,,,,,,,,,,,,b'\xff',b'\xff',b'\xff',b'\xff',
-1,-1,4294967.2950,,,,,,,,,,,,,,,,,,,,,,,,,,,b'\xff',b'\xff',b'\xff',b'\xff',
-1,-1,4294967.2950,,,,,,,,,,,,,,,,,,,,,,,,,,,b'\xff',b'\xff',b'\xff',b'\xff',
-1,-1,4294967.2950,,,,,,,,,,,,,,,,,,,,,,,,,,,b'\xff',b'\xff',b'\xff',b'\xff',
-1,-1,4294967.2950,,,,,,,,,,,,,,,,,,,,,,,,,,,b'\xff',b'\xff',b'\xff',b'\xff',
-1,-1,4294967.2950,,,,,,,,,,,,,,,,,,,,,,,,,,,b'\xff',b'\xff',b'\xff',b'\xff',
-1,-1,4294967.2950,,,,,,,,,,,,,,,,,,,,,,,,,,,b'\xff',b'\xff',b'\xff',b'\xff',
-1,-1,4294967.2950,,,,,,,,,,,,,,,,,,,,,,,,,,,b'\xff',b'\xff',b'\xff',b'\xff',
-1,-1,4294967.2950,,,,,,,,,,,,,,,,,,,,,,,,,,,b'\xff',b'\xff',b'\xff',b'\xff',
-1,-1,4294967.2950,,,,,,,,,,,,,,,,,,,,,,,,,,,b'\xff',b'\xff',b'\xff',b'\xff',
-1,-1,4294967.2950,,,,,,,,,,,,,,,,,,,,,,,,,,,b'\xff',b'\xff',b'\xff',b'\xff',
-1,-1,4294967.2950,,,,,,,,,,,,,,,,,,,,,,,,,,,b'\xff',b'\xff',b'\xff',b'\xff',
-1,-1,4294967.2950,,,,,,,,,,,,,,,,,,,,,,,,,,,b'\xff',b'\xff',b'\xff',b'\xff',
-1,-1,4294967.2950,,,,,,,,,,,,,,,,,,,,,,,,,,,b'\xff',b'\xff',b'\xff',b'\xff',
-1,-1,4294967.2950,,,,,,,,,,,,,,,,,,,,,,,,,,,b'\xff',b'\xff',b'\xff',b'\xff',
-1,-1,4294967.2950,,,,,,,,,,,,,,,,,,,,,,,,,,,b'\xff',b'\xff',b'\xff',b'\xff',
-1,-1,4294967.2950,,,,,,,,,,,,,,,,,,,,,,,,,,,b'\xff',b'\xff',b'\xff',b'\xff',
-1,-1,4294967.2950,,,,,,,,,,,,,,,,,,,,,,,,,,,b'\xff',b'\xff',b'\xff',b'\xff',
-1,-1,4294967.2950,,,,,,,,,,,,,,,,,,,,,,,,,,,b'\xff',b'\xff',b'\xff',b'\xff',
-1,-1,4294967.2950,,,,,,,,,,,,,,,,,,,,,,,,,,,b'\xff',b'\xff',b'\xff',b'\xff',
-1,-1,4294967.2950,,,,,,,,,,,,,,,,,,,,,,,,,,,b'\xff',b'\xff',b'\xff',b'\xff',
-1,-1,4294967.2950,,,,,,,,,,,,,,,,,,,,,,,,,,,b'\xff',b'\xff',b'\xff',b'\xff',
-1,-1,4294967.2950,,,,,,,,,,,,,,,,,,,,,,,,,,,b'\xff',b'\xff',b'\xff',b'\xff',
-1,-1,4294967.2950,,,,,,,,,,,,,,,,,,,,,,,,,,,b'\xff',b'\xff',b'\xff',b'\xff',
-1,-1,4294967.2950,,,,,,,,,,,,,,,,,,,,,,,,,,,b'\xff',b'\xff',b'\xff',b'\xff',
-1,-1,4294967.2950,,,,,,,,,,,,,,,,,,,,,,,,,,,b'\xff',b'\xff',b'\xff',b'\xff',
-1,-1,4294967.2950,,,,,,,,,,,,,,,,,,,,,,,,,,,b'\xff',b'\xff',b'\xff',b'\xff',
-1,-1,4294967.2950,,,,,,,,,,,,,,,,,,,,,,,,,,,b'\xff',b'\xff',b'\xff',b'\xff',
-1,-1,4294967.2950,,,,,,,,,,,,,,,,,,,,,,,,,,,b'\xff',b'\xff',b'\xff',b'\xff',
-1,-1,4294967.2950,,,,,,,,,,,,,,,,,,,,,,,,,,,b'\xff',b'\xff',b'\xff',b'\xff',
-1,-1,4294967.2950,,,,,,,,,,,,,,,,,,,,,,,,,,,b'\xff',b'\xff',b'\xff',b'\xff',
-1,-1,4294967.2950,,,,,,,,,,,,,,,,,,,,,,,,,,,b'\xff',b'\xff',b'\xff',b'\xff',
-1,-1,4294967.2950,,,,,,,,,,,,,,,,,,,,,,,,,,,b'\xff',b'\xff',b'\xff',b'\xff',
-1,-1,4294967.2950,,,,,,,,,,,,,,,,,,,,,,,,,,,b'\xff',b'\xff',b'\xff',b'\xff',
-1,-1,4294967.2950,,,,,,,,,,,,,,,,,,,,,,,,,,,b'\xff',b'\xff',b'\xff',b'\xff',
-1,-1,4294967.2950,,,,,,,,,,,,,,,,,,,,,,,,,,,b'\xff',b'\xff',b'\xff',b'\xff',
-1,-1,4294967.2950,,,,,,,,,,,,,,,,,,,,,,,,,,,b'\xff',b'\xff',b'\xff',b'\xff',
-1,-1,4294967.2950,,,,,,,,,,,,,,,,,,,,,,,,,,,b'\xff',b'\xff',b'\xff',b'\xff',
-1,-1,4294967.2950,,,,,,,,,,,,,,,,,,,,,,,,,,,b'\xff',b'\xff',b'\xff',b'\xff',
-1,-1,4294967.2950,,,,,,,,,,,,,,,,,,,,,,,,,,,b'\xff',b'\xff',b'\xff',b'\xff',
-1,-1,4294967.2950,,,,,,,,,,,,,,,,,,,,,,,,,,,b'\xff',b'\xff',b'\xff',b'\xff',
-1,-1,4294967.2950,,,,,,,,,,,,,,,,,,,,,,,,,,,b'\xff',b'\xff',b'\xff',b'\xff',
-1,-1,4294967.2950,,,,,,,,,,,,,,,,,,,,,,,,,,,b'\xff',b'\xff',b'\xff',b'\xff',
-1,-1,4294967.2950,,,,,,,,,,,,,,,,,,,,,,,,,,,b'\xff',b'\xff',b'\xff',b'\xff',
-1,-1,4294967.2950,,,,,,,,,,,,,,,,,,,,,,,,,,,b'\xff',b'\xff',b'\xff',b'\xff',
-1,-1,4294967.2950,,,,,,,,,,,,,,,,,,,,,,,,,,,b'\xff',b'\xff',b'\xff',b'\xff',
-1,-1,4294967.2950,,,,,,,,,,,,,,,,,,,,,,,,,,,b'\xff',b'\xff',b'\xff',b'\xff',
-1,-1,4294967.2950,,,,,,,,,,,,,,,,,,,,,,,,,,,b'\xff',b'\xff',b'\xff',b'\xff',
-1,-1,4294967.2950,,,,,,,,,,,,,,,,,,,,,,,,,,,b'\xff',b'\xff',b'\xff',b'\xff',
-1,-1,4294967.2950,,,,,,,,,,,,,,,,,,,,,,,,,,,b'\xff',b'\xff',b'\xff',b'\xff',
-1,-1,4294967.2950,,,,,,,,,,,,,,,,,,,,,,,,,,,b'\xff',b'\xff',b'\xff',b'\xff',
-1,-1,4294967.2950,,,,,,,,,,,,,,,,,,,,,,,,,,,b'\xff',b'\xff',b'\xff',b'\xff',
-1,-1,4294967.2950,,,,,,,,,,,,,,,,,,,,,,,,,,,b'\xff',b'\xff',b'\xff',b'\xff',
-1,-1,4294967.2950,,,,,,,,,,,,,,,,,,,,,,,,,,,b'\xff',b'\xff',b'\xff',b'\xff',
-1,-1,4294967.2950,,,,,,,,,,,,,,,,,,,,,,,,,,,b'\xff',b'\xff',b'\xff',b'\xff',
-1,-1,4294967.2950,,,,,,,,,,,,,,,,,,,,,,,,,,,b'\xff',b'\xff',b'\xff',b'\xff',
-1,-1,4294967.2950,,,,,,,,,,,,,,,,,,,,,,,,,,,b'\xff',b'\xff',b'\xff',b'\xff',
-1,-1,4294967.2950,,,,,,,,,,,,,,,,,,,,,,,,,,,b'\xff',b'\xff',b'\xff',b'\xff',
-1,-1,4294967.2950,,,,,,,,,,,,,,,,,,,,,,,,,,,b'\xff',b'\xff',b'\xff',b'\xff',
-1,-1,4294967.2950,,,,,,,,,,,,,,,,,,,,,,,,,,,b'\xff',b'\xff',b'\xff',b'\xff',
-1,-1,4294967.2950,,,,,,,,,,,,,,,,,,,,,,,,,,,b'\xff',b'\xff',b'\xff',b'\xff',
-1,-1,4294967.2950,,,,,,,,,,,,,,,,,,,,,,,,,,,b'\xff',b'\xff',b'\xff',b'\xff',
-1,-1,4294967.2950,,,,,,,,,,,,,,,,,,,,,,,,,,,b'\xff',b'\xff',b'\xff',b'\xff',
-1,-1,4294967.2950,,,,,,,,,,,,,,,,,,,,,,,,,,,b'\xff',b'\xff',b'\xff',b'\xff',
-1,-1,4294967.2950,,,,,,,,,,,,,,,,,,,,,,,,,,,b'\xff',b'\xff',b'\xff',b'\xff',
-1,-1,4294967.2950,,,,,,,,,,,,,,,,,,,,,,,,,,,b'\xff',b'\xff',b'\xff',b'\xff',
-1,-1,4294967.2950,,,,,,,,,,,,,,,,,,,,,,,,,,,b'\xff',b'\xff',b'\xff',b'\xff',
-1,-1,4294967.2950,,,,,,,,,,,,,,,,,,,,,,,,,,,b'\xff',b'\xff',b'\xff',b'\xff',
-1,-1,4294967.2950,,,,,,,,,,,,,,,,,,,,,,,,,,,b'\xff',b'\xff',b'\xff',b'\xff',
-1,-1,4294967.2950,,,,,,,,,,,,,,,,,,,,,,,,,,,b'\xff',b'\xff',b'\xff',b'\xff',
-1,-1,4294967.2950,,,,,,,,,,,,,,,,,,,,,,,,,,,b'\xff',b'\xff',b'\xff',b'\xff',
-1,-1,4294967.2950,,,,,,,,,,,,,,,,,,,,,,,,,,,b'\xff',b'\xff',b'\xff',b'\xff',
-1,-1,4294967.2950,,,,,,,,,,,,,,,,,,,,,,,,,,,b'\xff',b'\xff',b'\xff',b'\xff',
-1,-1,4294967.2950,,,,,,,,,,,,,,,,,,,,,,,,,,,b'\xff',b'\xff',b'\xff',b'\xff',
-1,-1,4294967.2950,,,,,,,,,,,,,,,,,,,,,,,,,,,b'\xff',b'\xff',b'\xff',b'\xff',
-1,-1,4294967.2950,,,,,,,,,,,,,,,,,,,,,,,,,,,b'\xff',b'\xff',b'\xff',b'\xff',
-1,-1,4294967.2950,,,,,,,,,,,,,,,,,,,,,,,,,,,b'\xff',b'\xff',b'\xff',b'\xff',
-1,-1,4294967.2950,,,,,,,,,,,,,,,,,,,,,,,,,,,b'\xff',b'\xff',b'\xff',b'\xff',
-1,-1,4294967.2950,,,,,,,,,,,,,,,,,,,,,,,,,,,b'\xff',b'\xff',b'\xff',b'\xff',
-1,-1,4294967.2950,,,,,,,,,,,,,,,,,,,,,,,,,,,b'\xff',b'\xff',b'\xff',b'\xff',
-1,-1,4294967.2950,,,,,,,,,,,,,,,,,,,,,,,,,,,b'\xff',b'\xff',b'\xff',b'\xff',
-1,-1,4294967.2950,,,,,,,,,,,,,,,,,,,,,,,,,,,b'\xff',b'\xff',b'\xff',b'\xff',
-1,-1,4294967.2950,,,,,,,,,,,,,,,,,,,,,,,,,,,b'\xff',b'\xff',b'\xff',b'\xff',
-1,-1,4294967.2950,,,,,,,,,,,,,,,,,,,,,,,,,,,b'\xff',b'\xff',b'\xff',b'\xff',
-1,-1,4294967.2950,,,,,,,,,,,,,,,,,,,,,,,,,,,b'\xff',b'\xff',b'\xff',b'\xff',
-1,-1,4294967.2950,,,,,,,,,,,,,,,,,,,,,,,,,,,b'\xff',b'\xff',b'\xff',b'\xff',
-1,-1,4294967.2950,,,,,,,,,,,,,,,,,,,,,,,,,,,b'\xff',b'\xff',b'\xff',b'\xff',
-1,-1,4294967.2950,,,,,,,,,,,,,,,,,,,,,,,,,,,b'\xff',b'\xff',b'\xff',b'\xff',
-1,-1,4294967.2950,,,,,,,,,,,,,,,,,,,,,,,,,,,b'\xff',b'\xff',b'\xff',b'\xff',
-1,-1,4294967.2950,,,,,,,,,,,,,,,,,,,,,,,,,,,b'\xff',b'\xff',b'\xff',b'\xff',
-1,-1,4294967.2950,,,,,,,,,,,,,,,,,,,,,,,,,,,b'\xff',b'\xff',b'\xff',b'\xff',
-1,-1,4294967.2950,,,,,,,,,,,,,,,,,,,,,,,,,,,b'\xff',b'\xff',b'\xff',b'\xff',
-1,-1,4294967.2950,,,,,,,,,,,,,,,,,,,,,,,,,,,b'\xff',b'\xff',b'\xff',b'\xff',
-1,-1,4294967.2950,,,,,,,,,,,,,,,,,,,,,,,,,,,b'\xff',b'\xff',b'\xff',b'\xff',
-1,-1,4294967.2950,,,,,,,,,,,,,,,,,,,,,,,,,,,b'\xff',b'\xff',b'\xff',b'\xff',
-1,-1,4294967.2950,,,,,,,,,,,,,,,,,,,,,,,,,,,b'\xff',b'\xff',b'\xff',b'\xff',
-1,-1,4294967.2950,,,,,,,,,,,,,,,,,,,,,,,,,,,b'\xff',b'\xff',b'\xff',b'\xff',
-1,-1,4294967.2950,,,,,,,,,,,,,,,,,,,,,,,,,,,b'\xff',b'\xff',b'\xff',b'\xff',
-1,-1,4294967.2950,,,,,,,,,,,,,,,,,,,,,,,,,,,b'\xff',b'\xff',b'\xff',b'\xff',
-1,-1,4294967.2950,,,,,,,,,,,,,,,,,,,,,,,,,,,b'\xff',b'\xff',b'\xff',b'\xff',
-1,-1,4294967.2950,,,,,,,,,,,,,,,,,,,,,,,,,,,b'\xff',b'\xff',b'\xff',b'\xff',
-1,-1,4294967.2950,,,,,,,,,,,,,,,,,,,,,,,,,,,b'\xff',b'\xff',b'\xff',b'\xff',
-1,-1,4294967.2950,,,,,,,,,,,,,,,,,,,,,,,,,,,b'\xff',b'\xff',b'\xff',b'\xff',
-1,-1,4294967.2950,,,,,,,,,,,,,,,,,,,,,,,,,,,b'\xff',b'\xff',b'\xff',b'\xff',
-1,-1,4294967.2950,,,,,,,,,,,,,,,,,,,,,,,,,,,b'\xff',b'\xff',b'\xff',b'\xff',
-1,-1,4294967.2950,,,,,,,,,,,,,,,,,,,,,,,,,,,b'\xff',b'\xff',b'\xff',b'\xff',
-1,-1,4294967.2950,,,,,,,,,,,,,,,,,,,,,,,,,,,b'\xff',b'\xff',b'\xff',b'\xff',
-1,-1,4294967.2950,,,,,,,,,,,,,,,,,,,,,,,,,,,b'\xff',b'\xff',b'\xff',b'\xff',
-1,-1,4294967.2950,,,,,,,,,,,,,,,,,,,,,,,,,,,b'\xff',b'\xff',b'\xff',b'\xff',
-1,-1,4294967.2950,,,,,,,,,,,,,,,,,,,,,,,,,,,b'\xff',b'\xff',b'\xff',b'\xff',
-1,-1,4294967.2950,,,,,,,,,,,,,,,,,,,,,,,,,,,b'\xff',b'\xff',b'\xff',b'\xff',
-1,-1,4294967.2950,,,,,,,,,,,,,,,,,,,,,,,,,,,b'\xff',b'\xff',b'\xff',b'\xff',
-1,-1,4294967.2950,,,,,,,,,,,,,,,,,,,,,,,,,,,b'\xff',b'\xff',b'\xff',b'\xff',
-1,-1,4294967.2950,,,,,,,,,,,,,,,,,,,,,,,,,,,b'\xff',b'\xff',b'\xff',b'\xff',
-1,-1,4294967.2950,,,,,,,,,,,,,,,,,,,,,,,,,,,b'\xff',b'\xff',b'\xff',b'\xff',
-1,-1,4294967.2950,,,,,,,,,,,,,,,,,,,,,,,,,,,b'\xff',b'\xff',b'\xff',b'\xff',
-1,-1,4294967.2950,,,,,,,,,,,,,,,,,,,,,,,,,,,b'\xff',b'\xff',b'\xff',b'\xff',
-1,-1,4294967.2950,,,,,,,,,,,,,,,,,,,,,,,,,,,b'\xff',b'\xff',b'\xff',b'\xff',
-1,-1,4294967.2950,,,,,,,,,,,,,,,,,,,,,,,,,,,b'\xff',b'\xff',b'\xff',b'\xff',
-1,-1,4294967.2950,,,,,,,,,,,,,,,,,,,,,,,,,,,b'\xff',b'\xff',b'\xff',b'\xff',
-1,-1,4294967.2950,,,,,,,,,,,,,,,,,,,,,,,,,,,b'\xff',b'\xff',b'\xff',b'\xff',
-1,-1,4294967.2950,,,,,,,,,,,,,,,,,,,,,,,,,,,b'\xff',b'\xff',b'\xff',b'\xff',
-1,-1,4294967.2950,,,,,,,,,,,,,,,,,,,,,,,,,,,b'\xff',b'\xff',b'\xff',b'\xff',
-1,-1,4294967.2950,,,,,,,,,,,,,,,,,,,,,,,,,,,b'\xff',b'\xff',b'\xff',b'\xff',
-1,-1,4294967.2950,,,,,,,,,,,,,,,,,,,,,,,,,,,b'\xff',b'\xff',b'\xff',b'\xff',
-1,-1,4294967.2950,,,,,,,,,,,,,,,,,,,,,,,,,,,b'\xff',b'\xff',b'\xff',b'\xff',
-1,-1,4294967.2950,,,,,,,,,,,,,,,,,,,,,,,,,,,b'\xff',b'\xff',b'\xff',b'\xff',
-1,-1,4294967.2950,,,,,,,,,,,,,,,,,,,,,,,,,,,b'\xff',b'\xff',b'\xff',b'\xff',
-1,-1,4294967.2950,,,,,,,,,,,,,,,,,,,,,,,,,,,b'\xff',b'\xff',b'\xff',b'\xff',
-1,-1,4294967.2950,,,,,,,,,,,,,,,,,,,,,,,,,,,b'\xff',b'\xff',b'\xff',b'\xff',
-1,-1,4294967.2950,,,,,,,,,,,,,,,,,,,,,,,,,,,b'\xff',b'\xff',b'\xff',b'\xff',
-1,-1,4294967.2950,,,,,,,,,,,,,,,,,,,,,,,,,,,b'\xff',b'\xff',b'\xff',b'\xff',
-1,-1,4294967.2950,,,,,,,,,,,,,,,,,,,,,,,,,,,b'\xff',b'\xff',b'\xff',b'\xff',
-1,-1,4294967.2950,,,,,,,,,,,,,,,,,,,,,,,,,,,b'\xff',b'\xff',b'\xff',b'\xff',
-1,-1,4294967.2950,,,,,,,,,,,,,,,,,,,,,,,,,,,b'\xff',b'\xff',b'\xff',b'\xff',
-1,-1,4294967.2950,,,,,,,,,,,,,,,,,,,,,,,,,,,b'\xff',b'\xff',b'\xff',b'\xff',
-1,-1,4294967.2950,,,,,,,,,,,,,,,,,,,,,,,,,,,b'\xff',b'\xff',b'\xff',b'\xff',
-1,-1,4294967.2950,,,,,,,,,,,,,,,,,,,,,,,,,,,b'\xff',b'\xff',b'\xff',b'\xff',
-1,-1,4294967.2950,,,,,,,,,,,,,,,,,,,,,,,,,,,b'\xff',b'\xff',b'\xff',b'\xff',
-1,-1,4294967.2950,,,,,,,,,,,,,,,,,,,,,,,,,,,b'\xff',b'\xff',b'\xff',b'\xff',
-1,-1,4294967.2950,,,,,,,,,,,,,,,,,,,,,,,,,,,b'\xff',b'\xff',b'\xff',b'\xff',
-1,-1,4294967.2950,,,,,,,,,,,,,,,,,,,,,,,,,,,b'\xff',b'\xff',b'\xff',b'\xff',
-1,-1,4294967.2950,,,,,,,,,,,,,,,,,,,,,,,,,,,b'\xff',b'\xff',b'\xff',b'\xff',
-1,-1,4294967.2950,,,,,,,,,,,,,,,,,,,,,,,,,,,b'\xff',b'\xff',b'\xff',b'\xff',
-1,-1,4294967.2950,,,,,,,,,,,,,,,,,,,,,,,,,,,b'\xff',b'\xff',b'\xff',b'\xff',
-1,-1,4294967.2950,,,,,,,,,,,,,,,,,,,,,,,,,,,b'\xff',b'\xff',b'\xff',b'\xff',
-1,-1,4294967.2950,,,,,,,,,,,,,,,,,,,,,,,,,,,b'\xff',b'\xff',b'\xff',b'\xff',
-1,-1,4294967.2950,,,,,,,,,,,,,,,,,,,,,,,,,,,b'\xff',b'\xff',b'\xff',b'\xff',
-1,-1,4294967.2950,,,,,,,,,,,,,,,,,,,,,,,,,,,b'\xff',b'\xff',b'\xff',b'\xff',
-1,-1,4294967.2950,,,,,,,,,,,,,,,,,,,,,,,,,,,b'\xff',b'\xff',b'\xff',b'\xff',
-1,-1,4294967.2950,,,,,,,,,,,,,,,,,,,,,,,,,,,b'\xff',b'\xff',b'\xff',b'\xff',
-1,-1,4294967.2950,,,,,,,,,,,,,,,,,,,,,,,,,,,b'\xff',b'\xff',b'\xff',b'\xff',
-1,-1,4294967.2950,,,,,,,,,,,,,,,,,,,,,,,,,,,b'\xff',b'\xff',b'\xff',b'\xff',
-1,-1,4294967.2950,,,,,,,,,,,,,,,,,,,,,,,,,,,b'\xff',b'\xff',b'\xff',b'\xff',
-1,-1,4294967.2950,,,,,,,,,,,,,,,,,,,,,,,,,,,b'\xff',b'\xff',b'\xff',b'\xff',
-1,-1,4294967.2950,,,,,,,,,,,,,,,,,,,,,,,,,,,b'\xff',b'\xff',b'\xff',b'\xff',
-1,-1,4294967.2950,,,,,,,,,,,,,,,,,,,,,,,,,,,b'\xff',b'\xff',b'\xff',b'\xff',
-1,-1,4294967.2950,,,,,,,,,,,,,,,,,,,,,,,,,,,b'\xff',b'\xff',b'\xff',b'\xff',
-1,-1,4294967.2950,,,,,,,,,,,,,,,,,,,,,,,,,,,b'\xff',b'\xff',b'\xff',b'\xff',
-1,-1,4294967.2950,,,,,,,,,,,,,,,,,,,,,,,,,,,b'\xff',b'\xff',b'\xff',b'\xff',
-1,-1,4294967.2950,,,,,,,,,,,,,,,,,,,,,,,,,,,b'\xff',b'\xff',b'\xff',b'\xff',
-1,-1,4294967.2950,,,,,,,,,,,,,,,,,,,,,,,,,,,b'\xff',b'\xff',b'\xff',b'\xff',
-1,-1,4294967.2950,,,,,,,,,,,,,,,,,,,,,,,,,,,b'\xff',b'\xff',b'\xff',b'\xff',
-1,-1,4294967.2950,,,,,,,,,,,,,,,,,,,,,,,,,,,b'\xff',b'\xff',b'\xff',b'\xff',
-1,-1,4294967.2950,,,,,,,,,,,,,,,,,,,,,,,,,,,b'\xff',b'\xff',b'\xff',b'\xff',
-1,-1,4294967.2950,,,,,,,,,,,,,,,,,,,,,,,,,,,b'\xff',b'\xff',b'\xff',b'\xff',
-1,-1,4294967.2950,,,,,,,,,,,,,,,,,,,,,,,,,,,b'\xff',b'\xff',b'\xff',b'\xff',
-1,-1,4294967.2950,,,,,,,,,,,,,,,,,,,,,,,,,,,b'\xff',b'\xff',b'\xff',b'\xff',
-1,-1,4294967.2950,,,,,,,,,,,,,,,,,,,,,,,,,,,b'\xff',b'\xff',b'\xff',b'\xff',
-1,-1,4294967.2950,,,,,,,,,,,,,,,,,,,,,,,,,,,b'\xff',b'\xff',b'\xff',b'\xff',
-1,-1,4294967.2950,,,,,,,,,,,,,,,,,,,,,,,,,,,b'\xff',b'\xff',b'\xff',b'\xff',
-1,-1,4294967.2950,,,,,,,,,,,,,,,,,,,,,,,,,,,b'\xff',b'\xff',b'\xff',b'\xff',
-1,-1,4294967.2950,,,,,,,,,,,,,,,,,,,,,,,,,,,b'\xff',b'\xff',b'\xff',b'\xff',
-1,-1,4294967.2950,,,,,,,,,,,,,,,,,,,,,,,,,,,b'\xff',b'\xff',b'\xff',b'\xff',
-1,-1,4294967.2950,,,,,,,,,,,,,,,,,,,,,,,,,,,b'\xff',b'\xff',b'\xff',b'\xff',
-1,-1,4294967.2950,,,,,,,,,,,,,,,,,,,,,,,,,,,b'\xff',b'\xff',b'\xff',b'\xff',
-1,-1,4294967.2950,,,,,,,,,,,,,,,,,,,,,,,,,,,b'\xff',b'\xff',b'\xff',b'\xff',
-1,-1,4294967.2950,,,,,,,,,,,,,,,,,,,,,,,,,,,b'\xff',b'\xff',b'\xff',b'\xff',
-1,-1,4294967.2950,,,,,,,,,,,,,,,,,,,,,,,,,,,b'\xff',b'\xff',b'\xff',b'\xff',
-1,-1,4294967.2950,,,,,,,,,,,,,,,,,,,,,,,,,,,b'\xff',b'\xff',b'\xff',b'\xff',
-1,-1,4294967.2950,,,,,,,,,,,,,,,,,,,,,,,,,,,b'\xff',b'\xff',b'\xff',b'\xff',
-1,-1,4294967.2950,,,,,,,,,,,,,,,,,,,,,,,,,,,b'\xff',b'\xff',b'\xff',b'\xff',
-1,-1,4294967.2950,,,,,,,,,,,,,,,,,,,,,,,,,,,b'\xff',b'\xff',b'\xff',b'\xff',
-1,-1,4294967.2950,,,,,,,,,,,,,,,,,,,,,,,,,,,b'\xff',b'\xff',b'\xff',b'\xff',
-1,-1,4294967.2950,,,,,,,,,,,,,,,,,,,,,,,,,,,b'\xff',b'\xff',b'\xff',b'\xff',
-1,-1,4294967.2950,,,,,,,,,,,,,,,,,,,,,,,,,,,b'\xff',b'\xff',b'\xff',b'\xff',
-1,-1,4294967.2950,,,,,,,,,,,,,,,,,,,,,,,,,,,b'\xff',b'\xff',b'\xff',b'\xff',
-1,-1,4294967.2950,,,,,,,,,,,,,,,,,,,,,,,,,,,b'\xff',b'\xff',b'\xff',b'\xff',
-1,-1,4294967.2950,,,,,,,,,,,,,,,,,,,,,,,,,,,b'\xff',b'\xff',b'\xff',b'\xff',
-1,-1,4294967.2950,,,,,,,,,,,,,,,,,,,,,,,,,,,b'\xff',b'\xff',b'\xff',b'\xff',
-1,-1,4294967.2950,,,,,,,,,,,,,,,,,,,,,,,,,,,b'\xff',b'\xff',b'\xff',b'\xff',
-1,-1,4294967.2950,,,,,,,,,,,,,,,,,,,,,,,,,,,b'\xff',b'\xff',b'\xff',b'\xff',
-1,-1,4294967.2950,,,,,,,,,,,,,,,,,,,,,,,,,,,b'\xff',b'\xff',b'\xff',b'\xff',
-1,-1,4294967.2950,,,,,,,,,,,,,,,,,,,,,,,,,,,b'\xff',b'\xff',b'\xff',b'\xff',
-1,-1,4294967.2950,,,,,,,,,,,,,,,,,,,,,,,,,,,b'\xff',b'\xff',b'\xff',b'\xff',
-1,-1,4294967.2950,,,,,,,,,,,,,,,,,,,,,,,,,,,b'\xff',b'\xff',b'\xff',b'\xff',
-1,-1,4294967.2950,,,,,,,,,,,,,,,,,,,,,,,,,,,b'\xff',b'\xff',b'\xff',b'\xff',
-1,-1,4294967.2950,,,,,,,,,,,,,,,,,,,,,,,,,,,b'\xff',b'\xff',b'\xff',b'\xff',
-1,-1,4294967.2950,,,,,,,,,,,,,,,,,,,,,,,,,,,b'\xff',b'\xff',b'\xff',b'\xff',
-1,-1,4294967.2950,,,,,,,,,,,,,,,,,,,,,,,,,,,b'\xff',b'\xff',b'\xff',b'\xff',
-1,-1,4294967.2950,,,,,,,,,,,,,,,,,,,,,,,,,,,b'\xff',b'\xff',b'\xff',b'\xff',
-1,-1,4294967.2950,,,,,,,,,,,,,,,,,,,,,,,,,,,b'\xff',b'\xff',b'\xff',b'\xff',
-1,-1,4294967.2950,,,,,,,,,,,,,,,,,,,,,,,,,,,b'\xff',b'\xff',b'\xff',b'\xff',
-1,-1,4294967.2950,,,,,,,,,,,,,,,,,,,,,,,,,,,b'\xff',b'\xff',b'\xff',b'\xff',
-1,-1,4294967.2950,,,,,,,,,,,,,,,,,,,,,,,,,,,b'\xff',b'\xff',b'\xff',b'\xff',
-1,-1,4294967.2950,,,,,,,,,,,,,,,,,,,,,,,,,,,b'\xff',b'\xff',b'\xff',b'\xff',
-1,-1,4294967.2950,,,,,,,,,,,,,,,,,,,,,,,,,,,b'\xff',b'\xff',b'\xff',b'\xff',
